File: data_examples/CV.mpt
EC-Lab ASCII FILE
Nb header lines : 53

Cyclic Voltammetry

Run on channel : 2 (SN 3021)
User :
Electrode connection : standard
Ewe ctrl range : min = -2.50 V, max = 2.50 V
Ewe,I filtering : 50 kHz
Channel : Grounded
Acquisition started on : 02/09/2022 11:50:33
Saved on :
	File : ele6_C02.mpr
	Directory : C:\Users\AGH\Desktop\Gisya\Standard procedures for memristors\4-dimethylaminopyridine+BiI3-Cu-ITO\4-aminopyrididne-Cu-ITO\
	Host : 10.156.202.9
Device : SP-300 (SN 0552)
Address : USB
EC-Lab for windows v11.20 (software)
Internet server v11.20 (firmware)
Command interpretor v11.20 (firmware)
Electrode material :
Initial state :
Electrolyte :
Comments :
Cable : standard
Electrode surface area : 0.001 cm
Characteristic mass : 0.001 g
Equivalent Weight : 0.000 g/eq.
Density : 0.000 g/cm3
Ei (V)              0.000
vs.                 Ref
dE/dt               500.000
dE/dt unit          mV/s
E1 (V)              1.500
vs.                 Ref
Step percent        50
N                   10
E range min (V)     -2.500
E range max (V)     2.500
I Range             Auto
I Range min         Unset
I Range max         Unset
I Range init        Unset
Bandwidth           9
E2 (V)              -1.500
vs.                 Ref
nc cycles           10
Reverse Scan        1
Ef (V)              0.000
vs.                 Ref

mode	ox/red	error	control changes	counter inc.	time/s	control/V	Ewe/V	<I>/mA	cycle number	(Q-Qo)/C	P/W
2	1	0	0	0	0.000000000000000E+000	0.0474147	0.0474489	0.280758	1	0.0000000E+000	1.33216e-05
2	1	0	1	0	0.0811	0.0879511	0.0879684	0.519579	1	3.24811e-05	4.57065e-05
2	1	0	1	0	0.1631	0.128937	0.128936	0.760885	1	8.50123e-05	9.81057e-05
2	1	0	1	0	0.2451	0.170024	0.169991	1.00268	1	0.000157342	0.000170447
2	1	0	1	0	0.3571	0.226005	0.226041	1.33367	1	0.00028692	0.000301464
2	1	0	1	0	0.4391	0.266991	0.267024	1.57443	1	0.000406173	0.00042041
2	1	0	1	0	0.5211	0.307978	0.308015	1.81533	1	0.000545178	0.000559149
2	1	0	1	0	0.6031	0.348964	0.349007	2.05568	1	0.000703908	0.000717449
2	1	0	1	0	0.6851	0.38995	0.389995	2.29619	1	0.000882365	0.000895502
2	1	0	1	0	0.7671	0.430936	0.430978	2.53623	1	0.00108052	0.00109306
2	1	0	1	0	0.8491	0.472023	0.472061	2.77481	1	0.00129833	0.00130988
2	1	0	1	0	0.9311	0.513009	0.513051	3.01341	1	0.00153566	0.00154603
2	1	0	1	0	1.0131	0.553995	0.554033	3.25246	1	0.00179259	0.00180197
2	1	0	1	0	1.0951	0.594982	0.59503	3.49232	1	0.00206914	0.00207803
2	1	0	1	0	1.1771	0.635968	0.635998	3.73114	1	0.00236534	0.002373
2	1	0	1	0	1.2591	0.676954	0.676994	3.96728	1	0.00268098	0.00268583
2	1	0	1	0	1.3411	0.71794	0.717959	4.20803	1	0.00301625	0.00302119
2	1	0	1	0	1.4231	0.759027	0.75907	4.44894	1	0.00337126	0.00337706
2	1	0	1	0	1.5051	0.800013	0.800048	4.69582	1	0.00374623	0.00375688
2	1	0	1	0	1.5871	0.840999	0.841053	4.96416	1	0.00414223	0.00417512
2	1	0	1	0	1.6691	0.881986	0.882032	5.22961	1	0.00456016	0.00461268
2	1	0	1	0	1.7511	0.922972	0.922992	5.49656	1	0.00500002	0.00507328
2	1	0	1	0	1.8331	0.963958	0.963997	5.77374	1	0.00546201	0.00556586
2	1	0	1	0	1.9151	1.00494	1.00497	6.07444	1	0.00594784	0.0061046
2	1	0	1	0	1.9971	1.04593	1.04596	6.35055	1	0.00645776	0.00664244
2	1	0	1	0	2.0791	1.08702	1.08705	6.69101	1	0.00699174	0.00727345
2	1	0	1	0	2.1611	1.128	1.12803	7.07135	1	0.00755521	0.00797673
2	1	0	1	0	2.2431	1.16899	1.16901	7.4523	1	0.00815163	0.00871181
2	1	0	1	0	2.3251	1.20998	1.20997	7.86795	1	0.00878057	0.00952001
2	1	0	1	0	2.4071	1.25096	1.251	8.30055	1	0.00944578	0.010384
2	1	0	1	0	2.4891	1.29195	1.29195	8.88823	1	0.0101514	0.0114832
2	1	0	1	0	2.5711	1.33293	1.33296	9.35509	1	0.0109086	0.0124699
2	1	0	1	0	2.6531	1.37402	1.37405	8.8274	1	0.0116682	0.0121293
2	1	0	1	0	2.7351	1.41501	1.41502	8.68644	1	0.0123774	0.0122915
2	1	0	1	0	2.8171	1.45599	1.45602	8.47226	1	0.0130838	0.0123357
2	1	0	1	0	2.8991	1.49698	1.497	8.53975	1	0.0137819	0.012784
2	0	0	0	0	2.9745	1.46539	1.46542	7.95152	1	0.0144031	0.0116523
2	0	0	0	0	3.0565	1.4244	1.42443	7.72767	1	0.0150474	0.0110076
2	0	0	0	0	3.1385	1.38342	1.38344	7.33628	1	0.0156657	0.0101493
2	0	0	0	0	3.2205	1.34233	1.34234	7.09659	1	0.0162576	0.00952601
2	0	0	0	0	3.3025	1.30135	1.30138	6.73339	1	0.0168207	0.0087627
2	0	0	0	0	3.3845	1.26036	1.26039	6.36252	1	0.0173534	0.00801924
2	0	0	0	0	3.4665	1.21937	1.2194	6.11978	1	0.0178634	0.00746247
2	0	0	0	0	3.5485	1.17839	1.17841	5.97151	1	0.0183562	0.00703691
2	0	0	0	0	3.6305	1.1374	1.13744	5.80025	1	0.0188378	0.00659745
2	0	0	0	0	3.7125	1.09641	1.09646	5.5594	1	0.0193048	0.00609563
2	0	0	0	0	3.7945	1.05543	1.05547	5.23116	1	0.0197481	0.00552133
2	0	0	0	0	3.8765	1.01434	1.01439	4.99686	1	0.0201683	0.00506876
2	0	0	0	0	3.9585	0.973355	0.973382	4.76242	1	0.0205686	0.00463565
2	0	0	0	0	4.0405	0.932369	0.932405	4.51945	1	0.0209493	0.00421396
2	0	0	0	0	4.1225	0.891383	0.891414	4.29168	1	0.0213109	0.00382567
2	0	0	0	0	4.2045	0.850396	0.850446	4.07284	1	0.0216537	0.00346373
2	0	0	0	0	4.2865	0.80941	0.809457	3.86351	1	0.0219785	0.00312735
2	0	0	0	0	4.3685	0.768424	0.768478	3.65234	1	0.0222865	0.00280674
2	0	0	0	0	4.4505	0.727337	0.7274	3.43246	1	0.0225765	0.00249677
2	0	0	0	0	4.5325	0.686351	0.686408	3.22047	1	0.0228491	0.00221056
2	0	0	0	0	4.6145	0.645365	0.645421	3.00045	1	0.0231048	0.00193656
2	0	0	0	0	4.6965	0.604378	0.604456	2.79659	1	0.0233427	0.00169042
2	0	0	0	0	4.7785	0.563392	0.563437	2.5959	1	0.0235638	0.00146263
2	0	0	0	0	4.8605	0.522406	0.522475	2.3935	1	0.0237684	0.00125054
2	0	0	0	0	4.9425	0.48142	0.481484	2.19825	1	0.0239565	0.00105842
2	0	0	0	0	5.0245	0.440333	0.440386	2.0004	1	0.0241284	0.000880949
2	0	0	0	0	5.1065	0.399347	0.399399	1.8043	1	0.0242843	0.000720637
2	0	0	0	0	5.1885	0.358361	0.358393	1.61604	1	0.0244246	0.000579177
2	0	0	0	0	5.2705	0.317374	0.317427	1.42546	1	0.0245493	0.00045248
2	0	0	0	0	5.3525	0.276388	0.276453	1.23608	1	0.0246584	0.000341717
2	0	0	0	0	5.4345	0.235402	0.235453	1.0492	1	0.0247521	0.000247037
2	0	0	0	0	5.5165	0.194416	0.194473	0.863412	1	0.0248304	0.00016791
2	0	0	0	0	5.5985	0.153429	0.153463	0.679913	1	0.0248936	0.000104342
2	0	0	0	0	5.6805	0.112343	0.112404	0.494857	1	0.0249417	5.56239e-05
2	0	0	0	0	5.7925	0.0563617	0.0563974	0.246877	1	0.0249845	1.39232e-05
2	0	0	0	0	5.8745	0.0153754	0.0154311	0.067808	1	0.0249974	1.04635e-06
2	0	0	0	0	5.9565	-0.0256109	-0.0255462	-0.110401	1	0.0249956	2.82034e-06
2	0	0	0	0	6.0385	-0.0665972	-0.0665223	-0.287357	1	0.0249792	1.91157e-05
2	0	0	0	0	6.1205	-0.107584	-0.107502	-0.463855	1	0.0249484	4.98655e-05
2	0	0	0	0	6.2025	-0.14857	-0.14849	-0.639295	1	0.0249032	9.49288e-05
2	0	0	0	0	6.2845	-0.189656	-0.189538	-0.816077	1	0.0248435	0.000154677
2	0	0	0	0	6.3665	-0.230642	-0.230526	-0.992079	1	0.0247693	0.0002287
2	0	0	0	0	6.4785	-0.286624	-0.286569	-1.23159	1	0.0246458	0.000352934
2	0	0	0	0	6.5605	-0.32761	-0.327548	-1.42886	1	0.024537	0.000468022
2	0	0	0	0	6.6425	-0.368596	-0.368535	-1.65697	1	0.0244117	0.000610653
2	0	0	0	0	6.7245	-0.409583	-0.409529	-1.87776	1	0.0242663	0.000768996
2	0	0	0	0	6.8065	-0.450669	-0.450624	-2.16541	1	0.0241009	0.000975785
2	0	0	0	0	6.8885	-0.491655	-0.49159	-2.42091	1	0.0239133	0.0011901
2	0	0	0	0	6.9705	-0.532642	-0.532586	-2.64998	1	0.0237054	0.00141135
2	0	0	0	0	7.0525	-0.573628	-0.573566	-3.01268	1	0.0234728	0.00172797
2	0	0	0	0	7.1345	-0.614614	-0.614566	-3.29681	1	0.023214	0.00202611
2	0	0	0	0	7.2165	-0.655601	-0.655536	-3.63909	1	0.0229296	0.00238555
2	0	0	0	0	7.2985	-0.696587	-0.696503	-4.02482	1	0.0226165	0.0028033
2	0	0	0	0	7.3805	-0.737573	-0.737505	-4.45075	1	0.0222685	0.00328245
2	0	0	0	0	7.4625	-0.778659	-0.778584	-4.88129	1	0.0218862	0.00380049
2	0	0	0	0	7.5445	-0.819646	-0.819598	-5.29551	1	0.0214684	0.00434019
2	0	0	0	0	7.6265	-0.860632	-0.860573	-5.71516	1	0.0210168	0.00491831
2	0	0	0	0	7.7085	-0.901618	-0.901555	-6.14607	1	0.0205306	0.00554102
2	0	0	0	0	7.7905	-0.942605	-0.942547	-6.57497	1	0.0200091	0.00619722
2	0	0	0	0	7.8725	-0.983591	-0.983522	-7.08576	1	0.0194488	0.006969
2	0	0	0	0	7.9545	-1.02458	-1.02453	-7.48727	1	0.018851	0.00767095
2	0	0	1	0	8.0367	-1.06576	-1.06569	-7.77011	1	0.0182245	0.00828057
2	0	0	1	0	8.1187	-1.10675	-1.10667	-8.04329	1	0.0175757	0.00890125
2	0	0	1	0	8.2007	-1.14774	-1.14765	-8.1782	1	0.0169079	0.00938571
2	0	0	1	0	8.2827	-1.18872	-1.18865	-7.62793	1	0.0162562	0.00906694
2	0	0	1	0	8.3647	-1.22971	-1.22962	-7.9271	1	0.0156203	0.00974733
2	0	0	1	0	8.4467	-1.2707	-1.27062	-8.25438	1	0.0149592	0.0104882
2	0	0	1	0	8.5287	-1.31168	-1.3116	-7.8791	1	0.0143036	0.0103342
2	0	0	1	0	8.6107	-1.35277	-1.35268	-8.02267	1	0.0136518	0.0108521
2	0	0	1	0	8.6927	-1.39375	-1.39369	-8.26536	1	0.012982	0.0115193
2	0	0	1	0	8.7747	-1.43474	-1.43465	-8.4018	1	0.0123011	0.0120536
2	0	0	1	0	8.8567	-1.47573	-1.47563	-8.53302	1	0.0116065	0.0125916
2	1	0	1	1	8.9327	-1.48642	-1.48632	-8.34883	1	0.0109562	0.012409
2	1	0	1	1	9.0147	-1.44544	-1.44535	-8.00875	1	0.0102826	0.0115755
2	1	0	1	1	9.0967	-1.40445	-1.40437	-7.64942	1	0.00963799	0.0107426
2	1	0	1	1	9.1787	-1.36346	-1.36337	-7.37367	1	0.00902213	0.010053
2	1	0	1	1	9.2607	-1.32238	-1.32231	-7.02587	1	0.00843251	0.00929039
2	1	0	1	1	9.3427	-1.28139	-1.28131	-6.80691	1	0.0078621	0.00872178
2	1	0	1	1	9.4247	-1.24041	-1.24034	-6.57149	1	0.00731259	0.00815086
2	1	0	1	1	9.5067	-1.19942	-1.19934	-6.31037	1	0.00678269	0.0075683
2	1	0	1	1	9.5887	-1.15843	-1.15836	-5.97684	1	0.00627804	0.00692331
2	1	0	1	1	9.6707	-1.11745	-1.11738	-5.9012	1	0.00579206	0.00659387
2	1	0	1	1	9.7527	-1.07646	-1.0764	-5.55705	1	0.00532111	0.00598161
2	1	0	0	1	9.8349	-1.03527	-1.0352	-5.57878	1	0.00487496	0.00577517
2	1	0	0	1	9.9169	-0.994287	-0.994227	-5.24516	1	0.00443522	0.00521488
2	1	0	0	1	9.9989	-0.953301	-0.953227	-4.92636	1	0.00401936	0.00469594
2	1	0	0	1	10.0809	-0.912315	-0.912258	-4.82677	1	0.00362094	0.00440326
2	1	0	0	1	10.1629	-0.871329	-0.87126	-4.64139	1	0.00323396	0.00404385
2	1	0	0	1	10.2449	-0.830342	-0.830291	-4.39498	1	0.00286327	0.00364911
2	1	0	0	1	10.3269	-0.789356	-0.789294	-4.13927	1	0.00251423	0.0032671
2	1	0	0	1	10.4089	-0.748309	-0.748214	-3.90635	1	0.0021843	0.00292279
2	1	0	0	1	10.4909	-0.707283	-0.707204	-3.67964	1	0.00187327	0.00260225
2	1	0	0	1	10.5729	-0.666297	-0.666232	-3.44456	1	0.00158135	0.00229488
2	1	0	0	1	10.6549	-0.625311	-0.625249	-3.21579	1	0.00130824	0.00201067
2	1	0	0	1	10.7369	-0.584324	-0.584249	-2.99038	1	0.00105396	0.00174713
2	1	0	0	1	10.8189	-0.543338	-0.54327	-2.76593	1	0.000817944	0.00150265
2	1	0	0	1	10.9009	-0.502352	-0.502279	-2.54624	1	0.00060012	0.00127892
2	1	0	0	1	10.9829	-0.461365	-0.461315	-2.33005	1	0.000400215	0.00107489
2	1	0	0	1	11.0649	-0.420279	-0.420216	-2.11253	1	0.0002181	0.000887718
2	1	0	0	1	11.1469	-0.379293	-0.379228	-1.89877	1	5.37246e-05	0.000720065
2	1	0	0	1	11.2289	-0.338306	-0.338232	-1.68585	1	-9.30904e-05	0.000570209
2	1	0	0	1	11.3109	-0.29732	-0.297238	-1.47626	1	-0.000222689	0.000438801
2	1	0	0	1	11.3929	-0.256334	-0.25627	-1.26812	1	-0.000335177	0.00032498
2	1	0	0	1	11.4749	-0.215348	-0.215291	-1.06101	1	-0.000430628	0.000228426
2	1	0	0	1	11.5569	-0.174361	-0.174284	-0.856372	1	-0.000509205	0.000149252
2	1	0	0	1	11.6389	-0.133275	-0.133195	-0.650962	1	-0.000570995	8.67051e-05
2	1	0	0	1	11.7209	-0.0922886	-0.0922045	-0.448865	1	-0.000616057	4.13874e-05
2	1	0	0	1	11.8329	-0.0363073	-0.0362311	-0.175502	1	-0.000652447	6.35862e-06
2	1	0	1	1	11.9127	0.00357935	0.003634	0.0183853	2	-0.000658694	6.68121e-08
2	1	0	1	1	11.9947	0.0445656	0.0446281	0.217007	2	-0.000649018	9.6846e-06
2	1	0	1	1	12.0767	0.0855519	0.0855564	0.414783	2	-0.000623089	3.54873e-05
2	1	0	1	1	12.1587	0.126538	0.126556	0.612042	2	-0.000580983	7.74579e-05
2	1	0	1	1	12.2407	0.167624	0.167615	0.809408	2	-0.000522672	0.000135669
2	1	0	1	1	12.3227	0.208611	0.208604	0.994759	2	-0.000448858	0.00020751
2	1	0	1	1	12.4347	0.264592	0.264631	1.26171	2	-0.000323531	0.000333888
2	1	0	1	1	12.5167	0.305578	0.305624	1.45548	2	-0.000212063	0.000444828
2	1	0	1	1	12.5987	0.346565	0.34662	1.64977	2	-8.48158e-05	0.000571843
2	1	0	1	1	12.6807	0.387551	0.387599	1.84701	2	5.86006e-05	0.000715902
2	1	0	1	1	12.7627	0.428537	0.428612	2.04266	2	0.000218097	0.000875511
2	1	0	1	1	12.8447	0.469624	0.469692	2.23338	2	0.000393466	0.001049
2	1	0	1	1	12.9267	0.51061	0.510669	2.52538	2	0.000587531	0.00128963
2	1	0	1	1	13.0087	0.551596	0.551661	2.796	2	0.000805269	0.00154244
2	1	0	1	1	13.0907	0.592582	0.592656	3.05259	2	0.00104617	0.00180913
2	1	0	1	1	13.1727	0.633569	0.633639	3.40374	2	0.00130936	0.00215674
2	1	0	1	1	13.2547	0.674555	0.674609	3.66802	2	0.00159945	0.00247448
2	1	0	1	1	13.3367	0.715541	0.715597	4.0211	2	0.00191405	0.00287749
2	1	0	1	1	13.4187	0.756628	0.756685	4.23381	2	0.00225168	0.00320366
2	1	0	1	1	13.5007	0.797614	0.797657	4.46725	2	0.00261012	0.00356334
2	1	0	1	1	13.5827	0.8386	0.838663	4.8408	2	0.00299149	0.0040598
2	1	0	1	1	13.6647	0.879586	0.879624	5.20509	2	0.00340154	0.00457852
2	1	0	1	1	13.7467	0.920573	0.920618	5.62946	2	0.00384638	0.00518258
2	1	0	1	1	13.8287	0.961559	0.961604	6.14868	2	0.00433067	0.0059126
2	1	0	1	1	13.9107	1.00255	1.0026	6.56768	2	0.00484888	0.00658473
2	1	0	1	1	13.9927	1.04353	1.04359	7.09568	2	0.00541114	0.00740497
2	1	0	1	1	14.0747	1.08462	1.08466	7.34076	2	0.0060076	0.00796223
2	1	0	1	1	14.1567	1.1256	1.12563	7.49723	2	0.00661464	0.00843909
2	1	0	1	1	14.2387	1.16659	1.16664	6.59647	2	0.00719315	0.0076957
2	1	0	1	1	14.3207	1.20758	1.20763	6.58182	2	0.00773305	0.00794843
2	1	0	1	1	14.4027	1.24856	1.24863	6.43005	2	0.00826659	0.00802877
2	1	0	1	1	14.4847	1.28955	1.28959	6.39384	2	0.0087919	0.00824543
2	1	0	1	1	14.5667	1.33054	1.33058	6.44463	2	0.00931902	0.00857508
2	1	0	1	1	14.6487	1.37162	1.37167	6.58377	2	0.00985468	0.00903078
2	1	0	1	1	14.7307	1.41261	1.41265	6.78733	2	0.0103991	0.00958813
2	1	0	1	1	14.8127	1.45359	1.45365	6.88452	2	0.0109595	0.0100077
2	1	0	1	1	14.8947	1.49458	1.49461	7.00208	2	0.0115275	0.0104654
2	0	0	0	1	14.9709	1.46739	1.46743	6.59378	2	0.0120465	0.00967593
2	0	0	0	1	15.0529	1.4264	1.42646	6.23688	2	0.01257	0.00889669
2	0	0	0	1	15.1349	1.38542	1.38547	5.88895	2	0.013065	0.00815895
2	0	0	0	1	15.2169	1.34433	1.34438	5.76016	2	0.0135453	0.00774386
2	0	0	0	1	15.2989	1.30334	1.30341	5.49065	2	0.0140046	0.00715655
2	0	0	0	1	15.3809	1.26236	1.26241	5.31473	2	0.0144486	0.00670937
2	0	0	0	1	15.4629	1.22137	1.22144	5.07694	2	0.0148772	0.00620116
2	0	0	0	1	15.5449	1.18039	1.18045	4.7963	2	0.0152807	0.00566178
2	0	0	0	1	15.6269	1.1394	1.13946	4.59584	2	0.0156677	0.00523678
2	0	0	0	1	15.7089	1.09841	1.09849	4.42292	2	0.0160376	0.00485851
2	0	0	0	1	15.7909	1.05743	1.05749	4.21132	2	0.0163907	0.00445343
2	0	0	0	1	15.8729	1.01634	1.0164	3.97197	2	0.0167268	0.00403713
2	0	0	0	1	15.9549	0.975354	0.975432	3.79257	2	0.0170451	0.0036994
2	0	0	0	1	16.0369	0.934368	0.934416	3.58391	2	0.0173485	0.00334887
2	0	0	0	1	16.1189	0.893382	0.893448	3.39635	2	0.0176338	0.00303446
2	0	0	0	1	16.2009	0.852396	0.852461	3.20842	2	0.0179043	0.00273505
2	0	0	0	1	16.2829	0.811409	0.811464	3.02611	2	0.01816	0.00245558
2	0	0	0	1	16.3649	0.770423	0.770492	2.85255	2	0.018401	0.00219787
2	0	0	0	1	16.4469	0.729337	0.729395	2.68299	2	0.0186281	0.00195696
2	0	0	0	1	16.5289	0.68835	0.688429	2.51169	2	0.0188411	0.00172912
2	0	0	0	1	16.6109	0.647364	0.647424	2.34073	2	0.0190399	0.00151545
2	0	0	0	1	16.6929	0.606378	0.60646	2.17684	2	0.0192252	0.00132017
2	0	0	0	1	16.7749	0.565391	0.565455	2.01654	2	0.019397	0.00114026
2	0	0	0	1	16.8569	0.524405	0.524458	1.85312	2	0.0195554	0.000971882
2	0	0	0	1	16.9389	0.483419	0.483485	1.6932	2	0.0197008	0.000818637
2	0	0	0	1	17.0209	0.442333	0.442407	1.54114	2	0.0198334	0.000681812
2	0	0	0	1	17.1029	0.401346	0.401414	1.3893	2	0.0199535	0.000557683
2	0	0	0	1	17.1849	0.36036	0.36043	1.23697	2	0.0200611	0.000445841
2	0	0	0	1	17.2669	0.319374	0.319435	1.08896	2	0.0201564	0.000347851
2	0	0	0	1	17.3489	0.278387	0.278458	0.945169	2	0.0202397	0.000263189
2	0	0	0	1	17.4309	0.237401	0.237463	0.799779	2	0.0203113	0.000189918
2	0	0	0	1	17.5129	0.196415	0.196485	0.657762	2	0.020371	0.00012924
2	0	0	0	1	17.5949	0.155429	0.155479	0.516006	2	0.0204191	8.0228e-05
2	0	0	0	1	17.6769	0.114342	0.1144	0.376489	2	0.0204556	4.30704e-05
2	0	0	0	1	17.7889	0.058361	0.0584297	0.190817	2	0.0204883	1.11494e-05
2	0	0	0	1	17.8709	0.0173747	0.0174532	0.057101	2	0.0204985	9.96598e-07
2	0	0	0	1	17.9529	-0.0236116	-0.0235332	-0.075868	2	0.0204977	1.78542e-06
2	0	0	0	1	18.0349	-0.0645979	-0.0645307	-0.20951	2	0.020486	1.35198e-05
2	0	0	0	1	18.1169	-0.105584	-0.105507	-0.344027	2	0.0204633	3.62972e-05
2	0	0	0	1	18.1989	-0.146571	-0.146461	-0.476874	2	0.0204297	6.98436e-05
2	0	0	0	1	18.2809	-0.187657	-0.187547	-0.623747	2	0.0203847	0.000116982
2	0	0	0	1	18.3629	-0.228643	-0.228561	-0.796135	2	0.0203269	0.000181965
2	0	0	0	1	18.4449	-0.269629	-0.269516	-0.983057	2	0.0202545	0.000264949
2	0	0	0	1	18.5569	-0.325611	-0.325552	-1.67307	2	0.0201021	0.000544673
2	0	0	0	1	18.6389	-0.366597	-0.366511	-1.92888	2	0.0199543	0.000706955
2	0	0	0	1	18.7209	-0.407583	-0.407527	-2.16985	2	0.0197863	0.000884273
2	0	0	0	1	18.8029	-0.44857	-0.448499	-2.44562	2	0.019597	0.00109686
2	0	0	0	1	18.8849	-0.489656	-0.489582	-2.76067	2	0.0193837	0.00135157
2	0	0	0	1	18.9669	-0.530642	-0.530575	-3.04512	2	0.019146	0.00161567
2	0	0	0	1	19.0489	-0.571629	-0.571529	-3.32456	2	0.0188849	0.00190008
2	0	0	0	1	19.1309	-0.612615	-0.612567	-3.6436	2	0.0185994	0.00223195
2	0	0	0	1	19.2129	-0.653601	-0.65352	-4.01866	2	0.018286	0.00262628
2	0	0	0	1	19.2949	-0.694588	-0.694509	-4.3525	2	0.017943	0.00302285
2	0	0	0	1	19.3769	-0.735574	-0.735508	-4.74271	2	0.0175704	0.0034883
2	0	0	0	1	19.4589	-0.77666	-0.776564	-5.07025	2	0.0171671	0.00393738
2	0	0	0	1	19.5409	-0.817646	-0.817591	-5.45729	2	0.0167361	0.00446183
2	0	0	0	1	19.6229	-0.858633	-0.858566	-5.8496	2	0.0162724	0.00502227
2	0	0	0	1	19.7049	-0.899619	-0.89954	-6.21649	2	0.0157775	0.00559198
2	0	0	0	1	19.7869	-0.940605	-0.940553	-6.5339	2	0.0152553	0.00614548
2	0	0	0	1	19.8689	-0.981592	-0.981497	-6.86226	2	0.0147063	0.00673528
2	0	0	0	1	19.9509	-1.02258	-1.02252	-7.181	2	0.0141295	0.00734274
2	0	0	1	1	20.0331	-1.06376	-1.06369	-7.4191	2	0.013529	0.00789161
2	0	0	1	1	20.1151	-1.10475	-1.10465	-7.45915	2	0.0129169	0.00823978
2	0	0	1	1	20.1971	-1.14574	-1.14565	-7.51904	2	0.0123035	0.00861417
2	0	0	1	1	20.2791	-1.18672	-1.18662	-7.32315	2	0.0116932	0.0086898
2	0	0	1	1	20.3611	-1.22771	-1.22762	-7.36497	2	0.0110917	0.00904137
2	0	0	1	1	20.4431	-1.2687	-1.2686	-7.53049	2	0.0104787	0.00955316
2	0	0	1	1	20.5251	-1.30968	-1.30958	-7.61083	2	0.00985504	0.00996703
2	0	0	1	1	20.6071	-1.35077	-1.35067	-7.91149	2	0.00922059	0.0106858
2	0	0	1	1	20.6891	-1.39175	-1.39165	-8.15246	2	0.00855801	0.0113454
2	0	0	1	1	20.7711	-1.43274	-1.43265	-8.40353	2	0.00787894	0.0120394
2	0	0	1	1	20.8531	-1.47373	-1.47363	-8.70592	2	0.00717617	0.0128293
2	1	0	1	0	20.9291	-1.48842	-1.48831	-8.76265	2	0.0065111	0.0130415
2	1	0	1	0	21.0111	-1.44744	-1.44734	-8.34048	2	0.00580952	0.0120715
2	1	0	1	0	21.0931	-1.40645	-1.40635	-8.11514	2	0.00513409	0.0114127
2	1	0	1	0	21.1751	-1.36546	-1.36535	-7.82489	2	0.00447909	0.0106837
2	1	0	1	0	21.2571	-1.32438	-1.32428	-7.58499	2	0.00384779	0.0100447
2	1	0	1	0	21.3391	-1.28339	-1.28329	-7.32296	2	0.00323841	0.00939745
2	1	0	1	0	21.4211	-1.2424	-1.24233	-6.97629	2	0.00265307	0.00866687
2	1	0	1	0	21.5031	-1.20142	-1.20133	-6.73918	2	0.00208958	0.00809598
2	1	0	1	0	21.5851	-1.16043	-1.16035	-6.48269	2	0.00154784	0.00752222
2	1	0	1	0	21.6671	-1.11945	-1.11936	-6.26275	2	0.00102538	0.00701029
2	1	0	1	0	21.7491	-1.07846	-1.07839	-5.97043	2	0.000522355	0.00643844
2	1	0	0	0	21.8313	-1.03727	-1.03719	-5.71587	2	4.27913e-05	0.00592845
2	1	0	0	0	21.9133	-0.996287	-0.996209	-5.44467	2	-0.000414198	0.00542402
2	1	0	0	0	21.9953	-0.9553	-0.955221	-5.18334	2	-0.000850786	0.00495123
2	1	0	0	0	22.0773	-0.914314	-0.914247	-5.01029	2	-0.00126879	0.00458064
2	1	0	0	0	22.1593	-0.873328	-0.873274	-4.749	2	-0.00166943	0.00414718
2	1	0	0	0	22.2413	-0.832342	-0.832302	-4.52246	2	-0.00205005	0.00376405
2	1	0	0	0	22.3233	-0.791355	-0.791288	-4.29275	2	-0.00241163	0.0033968
2	1	0	0	0	22.4053	-0.750369	-0.750294	-4.05538	2	-0.00275388	0.00304273
2	1	0	0	0	22.4873	-0.709283	-0.70921	-3.84898	2	-0.00307735	0.00272974
2	1	0	0	0	22.5693	-0.668296	-0.668212	-3.58343	2	-0.00338161	0.00239449
2	1	0	0	0	22.6513	-0.62731	-0.627265	-3.34711	2	-0.00366567	0.00209952
2	1	0	0	0	22.7333	-0.586324	-0.586242	-3.11452	2	-0.00393046	0.00182586
2	1	0	0	0	22.8153	-0.545337	-0.545274	-2.88344	2	-0.00417635	0.00157226
2	1	0	0	0	22.8973	-0.504351	-0.504283	-2.65365	2	-0.00440336	0.00133819
2	1	0	0	0	22.9793	-0.463365	-0.463305	-2.42707	2	-0.00461165	0.00112447
2	1	0	0	0	23.0613	-0.422278	-0.422222	-2.19352	2	-0.00480106	0.000926153
2	1	0	0	0	23.1433	-0.381292	-0.381231	-1.97181	2	-0.00497181	0.000751716
2	1	0	0	0	23.2253	-0.340306	-0.340236	-1.75199	2	-0.00512447	0.00059609
2	1	0	0	0	23.3073	-0.299319	-0.299244	-1.53438	2	-0.0052592	0.000459153
2	1	0	0	0	23.3893	-0.258333	-0.258265	-1.31842	2	-0.00537613	0.000340503
2	1	0	0	0	23.4713	-0.217347	-0.217307	-1.10403	2	-0.00547539	0.000239912
2	1	0	0	0	23.5533	-0.176361	-0.17631	-0.891878	2	-0.0055572	0.000157247
2	1	0	0	0	23.6353	-0.135274	-0.135203	-0.680565	2	-0.00562165	9.20144e-05
2	1	0	0	0	23.7173	-0.094288	-0.0942106	-0.471653	2	-0.00566888	4.44347e-05
2	1	0	0	0	23.8293	-0.0383067	-0.0382408	-0.190711	2	-0.0057074	7.29294e-06
2	1	0	1	0	23.9091	0.00158002	0.00162987	0.00888871	3	-0.00571462	1.44875e-08
2	1	0	1	0	24.0511	0.0725563	0.0725733	0.362945	3	-0.0056908	2.63402e-05
2	1	0	1	0	24.1331	0.113543	0.113552	0.567042	3	-0.00565264	6.43889e-05
2	1	0	1	0	24.2151	0.154629	0.154618	0.773497	3	-0.00559767	0.000119597
2	1	0	1	0	24.2971	0.195615	0.1956	0.978586	3	-0.00552579	0.000191411
2	1	0	1	0	24.4091	0.251596	0.251645	1.26099	3	-0.00540136	0.000317322
2	1	0	1	0	24.4911	0.292583	0.29264	1.46093	3	-0.00528974	0.000427527
2	1	0	1	0	24.5731	0.333569	0.333631	1.65852	3	-0.00516173	0.000553331
2	1	0	1	0	24.6551	0.374555	0.374622	1.86665	3	-0.00501724	0.000699287
2	1	0	1	0	24.7371	0.415542	0.415595	2.08763	3	-0.0048553	0.00086761
2	1	0	1	0	24.8191	0.456628	0.456683	2.336	3	-0.00467419	0.00106681
2	1	0	1	0	24.9011	0.497614	0.497683	2.67851	3	-0.00447021	0.00133305
2	1	0	1	0	24.9831	0.5386	0.538673	3.00983	3	-0.0042364	0.00162131
2	1	0	1	0	25.0651	0.579587	0.579657	3.32878	3	-0.00397743	0.00192955
2	1	0	1	0	25.1471	0.620573	0.620637	3.70551	3	-0.00368829	0.00229978
2	1	0	1	0	25.2291	0.661559	0.661619	4.03322	3	-0.00337158	0.00266846
2	1	0	1	0	25.3111	0.702546	0.702587	4.37421	3	-0.00302724	0.00307326
2	1	0	1	0	25.3931	0.743532	0.74359	4.65707	3	-0.00265679	0.00346295
2	1	0	1	0	25.4751	0.784618	0.784679	4.93472	3	-0.00226374	0.00387218
2	1	0	1	0	25.5571	0.825604	0.82566	5.12632	3	-0.00185134	0.00423259
2	1	0	1	0	25.6391	0.866591	0.866622	5.36998	3	-0.00142217	0.00465374
2	1	0	1	0	25.7211	0.907577	0.907623	5.61581	3	-0.00097517	0.00509704
2	1	0	1	0	25.8031	0.948563	0.948618	5.95988	3	-0.000500675	0.00565365
2	1	0	1	0	25.8851	0.98955	0.989583	6.18194	3	-3.56183e-06	0.00611754
2	1	0	1	0	25.9671	1.03054	1.03059	5.9135	3	0.000500562	0.00609438
2	1	0	1	0	26.0491	1.07162	1.07166	5.61118	3	0.000968659	0.00601328
2	1	0	1	0	26.1311	1.11261	1.11265	5.78884	3	0.00143976	0.00644094
2	1	0	1	0	26.2131	1.15359	1.15365	5.72049	3	0.00190897	0.00659942
2	1	0	1	0	26.2951	1.19458	1.19464	5.11539	3	0.00235788	0.00611108
2	1	0	1	0	26.3771	1.23557	1.23563	5.11534	3	0.00277766	0.00632067
2	1	0	1	0	26.4591	1.27655	1.2766	5.23892	3	0.00320434	0.00668798
2	1	0	1	0	26.5411	1.31754	1.31757	5.44763	3	0.00364138	0.00717762
2	1	0	1	0	26.6231	1.35863	1.35868	5.58556	3	0.00409348	0.00758899
2	1	0	1	0	26.7051	1.39961	1.39965	5.71622	3	0.00455705	0.00800072
2	1	0	1	0	26.7871	1.4406	1.44066	5.88779	3	0.005031	0.00848228
2	1	0	1	0	26.8691	1.48158	1.48162	6.08825	3	0.00552278	0.0090205
2	0	0	0	0	26.9453	1.48039	1.48044	5.97791	3	0.00598868	0.00884996
2	0	0	0	0	27.0273	1.4394	1.43944	5.62367	3	0.00646343	0.00809494
2	0	0	0	0	27.1093	1.39841	1.39848	5.41476	3	0.00692209	0.00757241
2	0	0	0	0	27.1913	1.35743	1.35747	5.21583	3	0.00735788	0.00708034
2	0	0	0	0	27.2733	1.31634	1.3164	5.01364	3	0.00777705	0.00659996
2	0	0	0	0	27.3553	1.27535	1.2754	4.76848	3	0.00817681	0.0060817
2	0	0	0	0	27.4373	1.23437	1.23444	4.54989	3	0.0085585	0.00561655
2	0	0	0	0	27.5193	1.19338	1.19345	4.36325	3	0.008923	0.00520733
2	0	0	0	0	27.6013	1.1524	1.15247	4.1484	3	0.00927181	0.00478091
2	0	0	0	0	27.6833	1.11141	1.11145	3.96074	3	0.00960433	0.00440216
2	0	0	0	0	27.7653	1.07042	1.07049	3.78494	3	0.00992242	0.00405175
2	0	0	0	0	27.8473	1.02934	1.02941	3.59325	3	0.0102252	0.00369894
2	0	0	0	0	27.9293	0.98835	0.988407	3.42314	3	0.010512	0.00338346
2	0	0	0	0	28.0113	0.947364	0.947421	3.2272	3	0.0107852	0.00305752
2	0	0	0	0	28.0933	0.906377	0.906433	3.05546	3	0.0110428	0.00276957
2	0	0	0	0	28.1753	0.865391	0.865471	2.8889	3	0.0112865	0.00250026
2	0	0	0	0	28.2573	0.824405	0.824461	2.72579	3	0.0115168	0.00224731
2	0	0	0	0	28.3393	0.783419	0.783485	2.56103	3	0.0117335	0.00200653
2	0	0	0	0	28.4213	0.742332	0.742384	2.40323	3	0.0119369	0.00178412
2	0	0	0	0	28.5033	0.701346	0.701405	2.24616	3	0.0121275	0.00157547
2	0	0	0	0	28.5853	0.66036	0.660441	2.09481	3	0.0123053	0.0013835
2	0	0	0	0	28.6673	0.619373	0.619428	1.94731	3	0.0124709	0.00120622
2	0	0	0	0	28.7493	0.578387	0.578454	1.80257	3	0.0126245	0.00104271
2	0	0	0	0	28.8313	0.537401	0.537466	1.65411	3	0.0127663	0.000889027
2	0	0	0	0	28.9133	0.496415	0.496459	1.51267	3	0.012896	0.00075098
2	0	0	0	0	28.9953	0.455428	0.455506	1.37758	3	0.0130144	0.000627495
2	0	0	0	0	29.0773	0.414342	0.414388	1.23887	3	0.0131215	0.000513373
2	0	0	0	0	29.1593	0.373356	0.373427	1.10834	3	0.0132177	0.000413886
2	0	0	0	0	29.2413	0.332369	0.332438	0.978192	3	0.0133032	0.000325188
2	0	0	0	0	29.3233	0.291383	0.291424	0.853835	3	0.0133783	0.000248828
2	0	0	0	0	29.4053	0.250397	0.25047	0.727773	3	0.0134431	0.000182286
2	0	0	0	0	29.4873	0.209411	0.209464	0.60328	3	0.0134976	0.000126365
2	0	0	0	0	29.5693	0.168424	0.168482	0.480056	3	0.013542	8.0881e-05
2	0	0	0	0	29.6513	0.127338	0.127415	0.361459	3	0.0135764	4.60553e-05
2	0	0	0	0	29.7633	0.0713567	0.07142	0.200877	3	0.0136087	1.43466e-05
2	0	0	0	0	29.8453	0.0303704	0.0304308	0.0856624	3	0.0136204	2.60678e-06
2	0	0	0	0	29.9273	-0.0106159	-0.0105448	-0.0290846	3	0.0136227	3.06692e-07
2	0	0	0	0	30.0093	-0.0516022	-0.0515296	-0.143854	3	0.0136156	7.41274e-06
2	0	0	0	0	30.0913	-0.0925885	-0.0924986	-0.258971	3	0.0135991	2.39545e-05
2	0	0	0	0	30.1733	-0.133575	-0.13349	-0.379537	3	0.013573	5.06645e-05
2	0	0	0	0	30.2553	-0.174661	-0.174557	-0.530367	3	0.013536	9.25793e-05
2	0	0	0	0	30.3373	-0.215647	-0.215563	-0.677011	3	0.0134868	0.000145939
2	0	0	0	0	30.4193	-0.256634	-0.256521	-0.897203	3	0.0134234	0.000230151
2	0	0	0	0	30.5313	-0.312615	-0.312564	-1.53935	3	0.0132929	0.000481145
2	0	0	0	0	30.6133	-0.353601	-0.353557	-1.76713	3	0.0131576	0.000624783
2	0	0	0	0	30.6953	-0.394588	-0.39452	-2.05013	3	0.0130007	0.000808818
2	0	0	0	0	30.7773	-0.435574	-0.435498	-2.31265	3	0.012822	0.00100715
2	0	0	0	0	30.8593	-0.47666	-0.476597	-2.61461	3	0.0126206	0.00124611
2	0	0	0	0	30.9413	-0.517647	-0.517557	-2.88618	3	0.0123949	0.00149377
2	0	0	0	0	31.0233	-0.558633	-0.558547	-3.17268	3	0.0121467	0.00177209
2	0	0	0	0	31.1053	-0.599619	-0.599518	-3.51335	3	0.0118716	0.00210632
2	0	0	0	0	31.1873	-0.640606	-0.640517	-3.88677	3	0.0115698	0.00248954
2	0	0	0	0	31.2693	-0.681592	-0.681508	-4.18471	3	0.011239	0.00285191
2	0	0	0	0	31.3513	-0.722578	-0.72248	-4.48809	3	0.0108832	0.00324256
2	0	0	0	0	31.4333	-0.763664	-0.763573	-4.78553	3	0.0105033	0.0036541
2	0	0	0	0	31.5153	-0.804651	-0.80458	-5.13218	3	0.0100974	0.00412925
2	0	0	0	0	31.5973	-0.845637	-0.845591	-5.4284	3	0.00966379	0.0045902
2	0	0	0	0	31.6793	-0.886623	-0.886569	-5.61454	3	0.00920918	0.00497768
2	0	0	0	0	31.7613	-0.92761	-0.927539	-5.72252	3	0.00874089	0.00530786
2	0	0	0	0	31.8433	-0.968596	-0.968533	-5.90274	3	0.00826268	0.005717
2	0	0	0	0	31.9253	-1.00958	-1.00951	-5.9793	3	0.00777767	0.00603618
2	0	0	1	0	32.0075	-1.05077	-1.05071	-5.96507	3	0.00729111	0.00626755
2	0	0	1	0	32.0895	-1.09175	-1.0917	-6.18296	3	0.00679045	0.00674991
2	0	0	1	0	32.1715	-1.13274	-1.13266	-6.4246	3	0.00627557	0.0072769
2	0	0	1	0	32.2535	-1.17373	-1.17367	-6.70316	3	0.00573736	0.0078673
2	0	0	1	0	32.3355	-1.21471	-1.21464	-6.9589	3	0.005177	0.00845257
2	0	0	1	0	32.4175	-1.2557	-1.25563	-7.32243	3	0.00458847	0.00919423
2	0	0	1	0	32.4995	-1.29669	-1.29661	-7.54186	3	0.00397747	0.00977887
2	0	0	1	0	32.5815	-1.33767	-1.33757	-7.85059	3	0.00334667	0.0105007
2	0	0	1	0	32.6635	-1.37876	-1.37867	-8.07566	3	0.00269453	0.0111337
2	0	0	1	0	32.7455	-1.41975	-1.41965	-8.30743	3	0.00202334	0.0117936
2	0	0	1	0	32.8275	-1.46073	-1.46064	-8.56359	3	0.00133215	0.0125083
2	0	0	1	0	32.9062	-1.50007	-1.49984	-8.82963	3	0.000651403	0.013243
2	1	0	1	1	32.9857	-1.46033	-1.46024	-8.41305	3	-2.98226e-05	0.012285
2	1	0	1	1	33.0677	-1.41935	-1.41927	-8.12114	3	-0.000706284	0.0115261
2	1	0	1	1	33.1497	-1.37836	-1.37827	-7.78533	3	-0.00135801	0.0107303
2	1	0	1	1	33.2317	-1.33727	-1.33719	-7.5386	3	-0.00198602	0.0100806
2	1	0	1	1	33.3137	-1.29629	-1.2962	-7.25608	3	-0.00259377	0.0094053
2	1	0	1	1	33.3957	-1.2553	-1.25521	-7.12494	3	-0.00318279	0.0089433
2	1	0	1	1	33.4777	-1.21431	-1.21424	-6.87583	3	-0.00375287	0.00834893
2	1	0	1	1	33.5597	-1.17333	-1.17326	-6.56031	3	-0.00430264	0.00769693
2	1	0	1	1	33.6417	-1.13234	-1.13228	-6.34	3	-0.00483261	0.00717865
2	1	0	1	1	33.7237	-1.09136	-1.09129	-5.99043	3	-0.00533824	0.00653732
2	1	0	1	1	33.8057	-1.05037	-1.0503	-5.7227	3	-0.0058183	0.00601056
2	1	0	0	1	33.8879	-1.00918	-1.00914	-5.47617	3	-0.00627858	0.0055262
2	1	0	0	1	33.9699	-0.968196	-0.968134	-5.2581	3	-0.0067207	0.00509055
2	1	0	0	1	34.0519	-0.92721	-0.92714	-5.019	3	-0.00714357	0.00465331
2	1	0	0	1	34.1339	-0.886224	-0.886161	-4.74947	3	-0.00754498	0.0042088
2	1	0	0	1	34.2159	-0.845237	-0.845185	-4.52319	3	-0.00792588	0.00382293
2	1	0	0	1	34.2979	-0.804251	-0.804191	-4.29547	3	-0.00828735	0.00345438
2	1	0	0	1	34.3799	-0.763265	-0.763186	-4.12393	3	-0.00863126	0.00314733
2	1	0	0	1	34.4619	-0.722178	-0.722091	-3.88654	3	-0.00895968	0.00280644
2	1	0	0	1	34.5439	-0.681192	-0.68113	-3.66172	3	-0.00926908	0.0024941
2	1	0	0	1	34.6259	-0.640206	-0.640115	-3.43151	3	-0.00956007	0.00219656
2	1	0	0	1	34.7079	-0.599219	-0.599139	-3.19669	3	-0.00983177	0.00191526
2	1	0	0	1	34.7899	-0.558233	-0.558151	-2.96271	3	-0.0100843	0.00165364
2	1	0	0	1	34.8719	-0.517247	-0.517162	-2.7342	3	-0.0103179	0.00141402
2	1	0	0	1	34.9539	-0.47626	-0.476214	-2.50602	3	-0.0105327	0.0011934
2	1	0	0	1	35.0359	-0.435174	-0.435113	-2.28036	3	-0.0107289	0.000992213
2	1	0	0	1	35.1179	-0.394188	-0.394127	-2.05725	3	-0.0109067	0.000810817
2	1	0	0	1	35.1999	-0.353202	-0.353139	-1.83462	3	-0.0110663	0.000647874
2	1	0	0	1	35.2819	-0.312215	-0.312157	-1.6149	3	-0.0112077	0.000504103
2	1	0	0	1	35.3639	-0.271229	-0.271171	-1.39679	3	-0.0113311	0.000378769
2	1	0	0	1	35.4459	-0.230243	-0.230207	-1.18016	3	-0.0114367	0.000271682
2	1	0	0	1	35.5279	-0.189256	-0.189189	-0.966221	3	-0.0115247	0.000182799
2	1	0	0	1	35.6099	-0.14817	-0.14809	-0.75304	3	-0.0115951	0.000111518
2	1	0	0	1	35.6919	-0.107184	-0.107101	-0.542088	3	-0.0116482	5.80581e-05
2	1	0	0	1	35.7739	-0.0661973	-0.0661284	-0.333051	3	-0.0116841	2.20241e-05
2	1	0	0	1	35.8859	-0.010216	-0.0101477	-0.0504662	3	-0.011707	5.12116e-07
2	1	0	0	1	35.9655	0.0295707	0.0296423	0.149725	4	-0.011703	4.43818e-06
2	1	0	0	1	36.0475	0.070557	0.0705946	0.35567	4	-0.0116823	2.51084e-05
2	1	0	0	1	36.1295	0.111543	0.111576	0.562485	4	-0.0116447	6.27597e-05
2	1	0	0	1	36.2115	0.15263	0.152629	0.769677	4	-0.01159	0.000117475
2	1	0	0	1	36.2935	0.193616	0.193604	0.97851	4	-0.0115183	0.000189443
2	1	0	0	1	36.4055	0.249597	0.249661	1.26723	4	-0.0113937	0.000316379
2	1	0	0	1	36.4875	0.290583	0.290636	1.47765	4	-0.0112811	0.00042946
2	1	0	0	1	36.5695	0.33157	0.331625	1.69267	4	-0.0111511	0.00056133
2	1	0	0	1	36.6515	0.372556	0.372626	1.90407	4	-0.0110037	0.000709506
2	1	0	0	1	36.7335	0.413542	0.413614	2.12835	4	-0.0108384	0.000880316
2	1	0	0	1	36.8155	0.454629	0.454705	2.36547	4	-0.010655	0.00107559
2	1	0	0	1	36.8975	0.495615	0.495667	2.61224	4	-0.0104508	0.0012948
2	1	0	0	1	36.9795	0.536601	0.536676	2.85726	4	-0.0102268	0.00153342
2	1	0	0	1	37.0615	0.577587	0.577649	3.19992	4	-0.00997964	0.00184843
2	1	0	0	1	37.1435	0.618574	0.618641	3.45475	4	-0.00970625	0.00213725
2	1	0	0	1	37.2255	0.65956	0.659623	3.74961	4	-0.00941074	0.00247333
2	1	0	0	1	37.3075	0.700546	0.700576	4.1291	4	-0.00908785	0.00289274
2	1	0	0	1	37.3895	0.741533	0.741599	4.50954	4	-0.0087339	0.00334427
2	1	0	0	1	37.4715	0.782619	0.782695	4.68564	4	-0.00835619	0.00366743
2	1	0	0	1	37.5535	0.823605	0.82367	5.1093	4	-0.00795432	0.00420838
2	1	0	0	1	37.6355	0.864591	0.864657	5.46091	4	-0.0075203	0.00472182
2	1	0	0	1	37.7175	0.905578	0.905615	5.6389	4	-0.00706613	0.00510667
2	1	0	0	1	37.7995	0.946564	0.946628	5.70615	4	-0.00659474	0.0054016
2	1	0	0	1	37.8815	0.98755	0.98761	5.33418	4	-0.00614913	0.00526809
2	1	0	0	1	37.9635	1.02854	1.0286	5.42364	4	-0.00570711	0.00557874
2	1	0	0	1	38.0455	1.06962	1.06967	5.4241	4	-0.00525964	0.00580199
2	1	0	0	1	38.1275	1.11061	1.11064	4.72581	4	-0.00482835	0.00524866
2	1	0	0	1	38.2095	1.1516	1.15166	4.53325	4	-0.00445468	0.00522078
2	1	0	0	1	38.2915	1.19258	1.19264	4.49779	4	-0.00408456	0.00536426
2	1	0	0	1	38.3735	1.23357	1.23363	4.64736	4	-0.00370666	0.00573312
2	1	0	0	1	38.4555	1.27455	1.27461	4.75185	4	-0.00332232	0.00605675
2	1	0	0	1	38.5375	1.31554	1.31557	4.94187	4	-0.00292765	0.00650138
2	1	0	0	1	38.6195	1.35663	1.35668	4.98776	4	-0.00251968	0.00676677
2	1	0	0	1	38.7015	1.39761	1.39766	5.1327	4	-0.00210462	0.00717377
2	1	0	0	1	38.7835	1.4386	1.43863	5.38714	4	-0.00167294	0.00775011
2	1	0	0	1	38.8655	1.47959	1.47963	5.89423	4	-0.00121566	0.0087213
2	0	0	1	1	38.9417	1.48238	1.48241	5.53346	4	-0.000786633	0.00820286
2	0	0	1	1	39.0237	1.4414	1.44142	5.22423	4	-0.000341702	0.00753031
2	0	0	1	1	39.1057	1.40041	1.40046	5.06071	4	7.93761e-05	0.00708732
2	0	0	1	1	39.1877	1.35943	1.35947	4.81865	4	0.000485189	0.00655083
2	0	0	1	1	39.2697	1.31834	1.31838	4.62092	4	0.000872069	0.00609214
2	0	0	1	1	39.3517	1.27735	1.27742	4.4416	4	0.00124515	0.00567379
2	0	0	1	1	39.4337	1.23637	1.23643	4.23426	4	0.00160017	0.00523538
2	0	0	1	1	39.5157	1.19538	1.19545	4.08979	4	0.00194039	0.00488913
2	0	0	1	1	39.5977	1.15439	1.15446	3.91852	4	0.00226506	0.00452377
2	0	0	1	1	39.6797	1.11341	1.11346	3.68555	4	0.00257677	0.00410371
2	0	0	1	1	39.7617	1.07242	1.07248	3.48611	4	0.0028703	0.00373878
2	0	0	1	1	39.8437	1.03134	1.03141	3.32714	4	0.00314902	0.00343164
2	0	0	1	1	39.9257	0.990349	0.990415	3.12862	4	0.00341326	0.00309863
2	0	0	1	1	40.0077	0.949363	0.949426	2.98388	4	0.0036638	0.00283297
2	0	0	1	1	40.0897	0.908377	0.908421	2.82178	4	0.00390199	0.00256336
2	0	0	1	1	40.1717	0.86739	0.867451	2.65302	4	0.00412713	0.00230136
2	0	0	1	1	40.2537	0.826404	0.826474	2.48976	4	0.00433838	0.00205772
2	0	0	1	1	40.3357	0.785418	0.785503	2.34243	4	0.00453651	0.00183998
2	0	0	1	1	40.4177	0.744332	0.744402	2.19362	4	0.00472214	0.00163293
2	0	0	1	1	40.4997	0.703345	0.703408	2.05564	4	0.00489649	0.00144595
2	0	0	1	1	40.5817	0.662359	0.662434	1.90951	4	0.00505889	0.00126493
2	0	0	1	1	40.6637	0.621373	0.621449	1.7745	4	0.00521001	0.00110276
2	0	0	1	1	40.7457	0.580386	0.580473	1.63572	4	0.00535033	0.000949493
2	0	0	1	1	40.8277	0.5394	0.539481	1.66971	4	0.00547978	0.000900777
2	0	0	1	1	40.9097	0.498414	0.498482	1.37252	4	0.0056004	0.000684178
2	0	0	1	1	40.9917	0.457428	0.457483	1.24625	4	0.0057078	0.000570139
2	0	0	1	1	41.0737	0.416341	0.416418	1.12105	4	0.00580476	0.000466825
2	0	0	1	1	41.1557	0.375355	0.375415	0.998503	4	0.0058916	0.000374853
2	0	0	1	1	41.2377	0.334369	0.334432	0.877939	4	0.00596872	0.000293611
2	0	0	1	1	41.3197	0.293382	0.293444	0.763239	4	0.00603598	0.000223968
2	0	0	1	1	41.4017	0.252396	0.252471	0.648228	4	0.00609389	0.000163659
2	0	0	1	1	41.4837	0.21141	0.211477	0.539872	4	0.0061426	0.00011417
2	0	0	1	1	41.5957	0.155429	0.155469	0.391124	4	0.00619547	6.08075e-05
2	0	0	1	1	41.6777	0.114342	0.114394	0.285364	4	0.00622316	3.26439e-05
2	0	0	1	1	41.7597	0.073356	0.0734239	0.182201	4	0.0062423	1.33779e-05
2	0	0	1	1	41.8417	0.0323697	0.0324269	0.0804081	4	0.00625305	2.60738e-06
2	0	0	1	1	41.9237	-0.00861657	-0.00854979	-0.0207071	4	0.00625549	1.77041e-07
2	0	0	1	1	42.0057	-0.0496029	-0.0495273	-0.121783	4	0.00624964	6.03159e-06
2	0	0	1	1	42.0877	-0.0905892	-0.0905099	-0.224423	4	0.00623545	2.03125e-05
2	0	0	1	1	42.1697	-0.131576	-0.131499	-0.329891	4	0.0062128	4.33804e-05
2	0	0	1	1	42.2517	-0.172662	-0.17255	-0.434622	4	0.00618155	7.49938e-05
2	0	0	1	1	42.3337	-0.213648	-0.213547	-0.594058	4	0.00613945	0.000126859
2	0	0	1	1	42.4157	-0.254634	-0.254517	-0.780109	4	0.00608221	0.000198551
2	0	0	1	1	42.5277	-0.310616	-0.31058	-1.3371	4	0.00597515	0.000415277
2	0	0	1	1	42.6097	-0.351602	-0.351535	-1.68525	4	0.00585329	0.000592423
2	0	0	1	1	42.6917	-0.392588	-0.392528	-1.96281	4	0.00570345	0.000770457
2	0	0	1	1	42.7737	-0.433575	-0.433489	-2.25401	4	0.0055312	0.000977088
2	0	0	1	1	42.8557	-0.474661	-0.4746	-2.56049	4	0.0053345	0.00121521
2	0	0	1	1	42.9377	-0.515647	-0.515586	-2.83882	4	0.00511305	0.00146366
2	0	0	1	1	43.0197	-0.556634	-0.556539	-3.08468	4	0.00486922	0.00171674
2	0	0	1	1	43.1017	-0.59762	-0.597514	-3.40097	4	0.0046036	0.00203212
2	0	0	1	1	43.1837	-0.638606	-0.638521	-3.70534	4	0.0043127	0.00236593
2	0	0	1	1	43.2657	-0.679592	-0.679507	-4.07348	4	0.00399414	0.00276796
2	0	0	1	1	43.3477	-0.720579	-0.72049	-4.4205	4	0.00364666	0.00318493
2	0	0	1	1	43.4297	-0.761665	-0.761579	-4.77079	4	0.00326963	0.00363334
2	0	0	1	1	43.5117	-0.802651	-0.802578	-5.12537	4	0.00286495	0.00411351
2	0	0	1	1	43.5937	-0.843638	-0.84356	-5.42241	4	0.00243233	0.00457413
2	0	0	1	1	43.6757	-0.884624	-0.884557	-5.67583	4	0.00197674	0.00502059
2	0	0	1	1	43.7577	-0.92561	-0.925542	-5.81513	4	0.00150379	0.00538215
2	0	0	1	1	43.8397	-0.966597	-0.966507	-5.61678	4	0.00103742	0.00542866
2	0	0	1	1	43.9217	-1.00758	-1.00749	-5.56917	4	0.000579464	0.0056109
2	0	0	0	1	44.0039	-1.04877	-1.04869	-6.0068	4	0.000108744	0.00629925
2	0	0	0	1	44.0859	-1.08976	-1.08969	-6.14563	4	-0.000387538	0.00669682
2	0	0	0	1	44.1679	-1.13074	-1.13068	-6.38392	4	-0.000903254	0.00721815
2	0	0	0	1	44.2499	-1.17173	-1.17164	-6.74611	4	-0.00143973	0.00790403
2	0	0	0	1	44.3319	-1.21271	-1.21263	-6.93518	4	-0.00199994	0.00840982
2	0	0	0	1	44.4139	-1.2537	-1.25365	-7.19886	4	-0.00257891	0.00902483
2	0	0	0	1	44.4959	-1.29469	-1.2946	-7.50175	4	-0.00318052	0.00971178
2	0	0	0	1	44.5779	-1.33567	-1.33558	-7.71072	4	-0.00380481	0.0102983
2	0	0	0	1	44.6599	-1.37676	-1.37666	-7.92088	4	-0.00444435	0.0109044
2	0	0	0	1	44.7419	-1.41775	-1.41763	-8.15423	4	-0.00510543	0.0115597
2	0	0	0	1	44.8239	-1.45873	-1.45864	-8.51321	4	-0.00578623	0.0124177
2	0	0	0	1	44.9056	-1.49957	-1.49946	-8.79767	4	-0.00649347	0.0131917
2	1	0	0	0	44.9821	-1.46233	-1.46223	-8.41784	4	-0.0071536	0.0123088
2	1	0	0	0	45.0641	-1.42135	-1.42124	-8.23345	4	-0.00783409	0.0117017
2	1	0	0	0	45.1461	-1.38036	-1.38029	-7.87923	4	-0.00849654	0.0108757
2	1	0	0	0	45.2281	-1.33927	-1.33916	-7.69445	4	-0.00913117	0.0103041
2	1	0	0	0	45.3101	-1.29829	-1.2982	-7.32608	4	-0.00974657	0.00951075
2	1	0	0	0	45.3921	-1.2573	-1.25723	-7.08975	4	-0.010337	0.00891341
2	1	0	0	0	45.4741	-1.21631	-1.21622	-6.94047	4	-0.0109108	0.00844116
2	1	0	0	0	45.5561	-1.17533	-1.17526	-6.65665	4	-0.0114681	0.0078233
2	1	0	0	0	45.6381	-1.13434	-1.13428	-6.50783	4	-0.0120103	0.0073817
2	1	0	0	0	45.7201	-1.09335	-1.0933	-6.21929	4	-0.0125322	0.00679955
2	1	0	0	0	45.8021	-1.05237	-1.05231	-5.9577	4	-0.0130297	0.00626934
2	1	0	1	0	45.8843	-1.01118	-1.01112	-5.68353	4	-0.0135075	0.00574671
2	1	0	1	0	45.9663	-0.970195	-0.97014	-5.42954	4	-0.0139629	0.00526741
2	1	0	1	0	46.0483	-0.929209	-0.929165	-5.19334	4	-0.0143982	0.00482547
2	1	0	1	0	46.1303	-0.888223	-0.888155	-4.95051	4	-0.0148142	0.00439682
2	1	0	1	0	46.2123	-0.847237	-0.84718	-4.70747	4	-0.0152102	0.00398808
2	1	0	1	0	46.2943	-0.80625	-0.806201	-4.48191	4	-0.0155871	0.00361332
2	1	0	1	0	46.3763	-0.765264	-0.765196	-4.2166	4	-0.0159434	0.00322652
2	1	0	1	0	46.4583	-0.724178	-0.724094	-3.97383	4	-0.0162791	0.00287743
2	1	0	1	0	46.5403	-0.683191	-0.683122	-3.73342	4	-0.0165951	0.00255038
2	1	0	1	0	46.6223	-0.642205	-0.642135	-3.49543	4	-0.0168915	0.00224454
2	1	0	1	0	46.7043	-0.601219	-0.60117	-3.26065	4	-0.0171684	0.00196021
2	1	0	1	0	46.7863	-0.560232	-0.560161	-3.02469	4	-0.017426	0.00169431
2	1	0	1	0	46.8683	-0.519246	-0.519167	-2.79237	4	-0.0176645	0.00144971
2	1	0	1	0	46.9503	-0.47826	-0.478183	-2.56068	4	-0.0178839	0.00122447
2	1	0	1	0	47.0323	-0.437173	-0.437117	-2.33068	4	-0.0180844	0.00101878
2	1	0	1	0	47.1143	-0.396187	-0.396142	-2.10102	4	-0.018266	0.000832301
2	1	0	1	0	47.1963	-0.355201	-0.355143	-1.87725	4	-0.0184291	0.000666691
2	1	0	1	0	47.2783	-0.314215	-0.314167	-1.65358	4	-0.0185738	0.000519502
2	1	0	1	0	47.3603	-0.273228	-0.273177	-1.43202	4	-0.0187003	0.000391194
2	1	0	1	0	47.4423	-0.232242	-0.232192	-1.21279	4	-0.0188087	0.000281599
2	1	0	1	0	47.5243	-0.191256	-0.19122	-0.994628	4	-0.0188992	0.000190193
2	1	0	1	0	47.6063	-0.150269	-0.150201	-0.778437	4	-0.0189718	0.000116922
2	1	0	1	0	47.6883	-0.109183	-0.10911	-0.562943	4	-0.0190268	6.14228e-05
2	1	0	1	0	47.8003	-0.0532017	-0.0531137	-0.27315	4	-0.0190751	1.4508e-05
2	1	0	1	0	47.8823	-0.0122154	-0.0121395	-0.061811	4	-0.0190888	7.50358e-07
2	1	0	1	0	47.9619	0.0275713	0.0276115	0.142379	5	-0.0190856	3.93129e-06
2	1	0	1	0	48.0439	0.0685576	0.0686083	0.352122	5	-0.0190653	2.41585e-05
2	1	0	1	0	48.1259	0.109544	0.109568	0.562521	5	-0.0190277	6.16344e-05
2	1	0	1	0	48.2079	0.15063	0.15063	0.77287	5	-0.018973	0.000116417
2	1	0	1	0	48.2899	0.191616	0.191604	0.975018	5	-0.0189015	0.000186817
2	1	0	1	0	48.4019	0.247598	0.247645	1.26243	5	-0.0187775	0.000312634
2	1	0	1	0	48.4839	0.288584	0.288615	1.4698	5	-0.0186653	0.000424206
2	1	0	1	0	48.5659	0.32957	0.329599	1.66841	5	-0.0185366	0.000549906
2	1	0	1	0	48.6479	0.370557	0.370595	1.88366	5	-0.0183909	0.000698077
2	1	0	1	0	48.7299	0.411543	0.411578	2.12495	5	-0.0182266	0.000874584
2	1	0	1	0	48.8119	0.452629	0.452686	2.35812	5	-0.0180431	0.00106749
2	1	0	1	0	48.8939	0.493615	0.49368	2.5948	5	-0.0178403	0.001281
2	1	0	1	0	48.9759	0.534602	0.534665	2.88709	5	-0.0176157	0.00154363
2	1	0	1	0	49.0579	0.575588	0.575652	3.14481	5	-0.017368	0.00181032
2	1	0	1	0	49.1399	0.616574	0.616629	3.42403	5	-0.017099	0.00211135
2	1	0	1	0	49.2219	0.657561	0.657619	3.75613	5	-0.0168051	0.0024701
2	1	0	1	0	49.3039	0.698547	0.698598	4.15502	5	-0.0164824	0.00290269
2	1	0	1	0	49.3859	0.739533	0.739577	4.44605	5	-0.0161294	0.0032882
2	1	0	1	0	49.4679	0.780619	0.780649	4.59065	5	-0.0157604	0.00358369
2	1	0	1	0	49.5499	0.821606	0.821665	4.84478	5	-0.0153724	0.00398079
2	1	0	1	0	49.6319	0.862592	0.862642	4.96474	5	-0.0149693	0.00428279
2	1	0	1	0	49.7139	0.903578	0.903632	4.92628	5	-0.0145655	0.00445154
2	1	0	1	0	49.7959	0.944565	0.944599	5.02881	5	-0.0141537	0.00475021
2	1	0	1	0	49.8779	0.985551	0.985591	5.18678	5	-0.0137371	0.00511204
2	1	0	1	0	49.9599	1.02654	1.02659	5.32934	5	-0.0133062	0.00547106
2	1	0	1	0	50.0419	1.06762	1.06767	5.33195	5	-0.0128683	0.00569279
2	1	0	1	0	50.1239	1.10861	1.10864	4.21064	5	-0.0124739	0.0046681
2	1	0	1	0	50.2059	1.1496	1.14964	4.03986	5	-0.0121374	0.00464439
2	1	0	1	0	50.2879	1.19058	1.19063	4.06487	5	-0.0118039	0.00483975
2	1	0	1	0	50.3699	1.23157	1.23162	4.17862	5	-0.0114692	0.00514646
2	1	0	1	0	50.4519	1.27256	1.2726	4.29434	5	-0.0111204	0.00546499
2	1	0	1	0	50.5339	1.31354	1.3136	4.45063	5	-0.0107611	0.00584633
2	1	0	1	0	50.6159	1.35463	1.35468	4.64888	5	-0.0103871	0.00629774
2	1	0	1	0	50.6979	1.39561	1.39566	4.75131	5	-0.0100017	0.00663122
2	1	0	1	0	50.7799	1.4366	1.43663	4.9637	5	-0.00960333	0.00713101
2	1	0	1	0	50.8619	1.47759	1.47763	5.23354	5	-0.00918654	0.00773322
2	0	0	0	0	50.9381	1.48438	1.48442	5.25167	5	-0.0087852	0.0077957
2	0	0	0	0	51.0201	1.4434	1.44344	5.08407	5	-0.00836058	0.00733854
2	0	0	0	0	51.1021	1.40241	1.40246	4.8135	5	-0.00795664	0.00675077
2	0	0	0	0	51.1841	1.36143	1.36147	4.64532	5	-0.00756813	0.00632445
2	0	0	0	0	51.2661	1.32034	1.32039	4.44589	5	-0.00719424	0.00587032
2	0	0	0	0	51.3481	1.27935	1.27941	4.34834	5	-0.00683652	0.0055633
2	0	0	0	0	51.4301	1.23837	1.23843	4.09148	5	-0.00649408	0.00506703
2	0	0	0	0	51.5121	1.19738	1.19745	3.9059	5	-0.00616635	0.00467711
2	0	0	0	0	51.5941	1.15639	1.15645	3.75037	5	-0.00585292	0.00433713
2	0	0	0	0	51.6761	1.11541	1.11546	3.56416	5	-0.00555294	0.00397568
2	0	0	0	0	51.7581	1.07442	1.07448	3.39119	5	-0.00526836	0.00364378
2	0	0	0	0	51.8401	1.03334	1.03339	3.21247	5	-0.00499798	0.00331972
2	0	0	0	0	51.9221	0.992349	0.992422	3.04344	5	-0.0047419	0.00302038
2	0	0	0	0	52.0041	0.951362	0.951423	2.87525	5	-0.00449968	0.00273557
2	0	0	0	0	52.0861	0.910376	0.910427	2.7182	5	-0.00427005	0.00247472
2	0	0	0	0	52.1681	0.86939	0.869458	2.56164	5	-0.00405364	0.00222724
2	0	0	0	0	52.2501	0.828404	0.828478	2.4109	5	-0.00385007	0.00199738
2	0	0	0	0	52.3321	0.787417	0.787497	2.26032	5	-0.00365817	0.00177999
2	0	0	0	0	52.4141	0.746331	0.746415	2.11816	5	-0.00347857	0.00158102
2	0	0	0	0	52.4961	0.705345	0.705406	1.98146	5	-0.00331072	0.00139773
2	0	0	0	0	52.5781	0.664358	0.664423	1.8567	5	-0.00315406	0.00123364
2	0	0	0	0	52.6601	0.623372	0.623434	1.71549	5	-0.00300764	0.00106949
2	0	0	0	0	52.7421	0.582386	0.582461	1.59871	5	-0.00287175	0.000931186
2	0	0	0	0	52.8241	0.5414	0.541456	1.46874	5	-0.00274598	0.000795258
2	0	0	0	0	52.9061	0.500413	0.500455	1.34048	5	-0.00263089	0.000670848
2	0	0	0	0	52.9881	0.459427	0.459487	1.21148	5	-0.00252636	0.000556659
2	0	0	0	0	53.0701	0.418341	0.418396	1.09112	5	-0.00243183	0.000456521
2	0	0	0	0	53.1521	0.377354	0.377425	0.978504	5	-0.00234708	0.000369312
2	0	0	0	0	53.2341	0.336368	0.336423	0.863187	5	-0.00227159	0.000290396
2	0	0	0	0	53.3161	0.295382	0.295424	0.749878	5	-0.00220552	0.000221532
2	0	0	0	0	53.3981	0.254395	0.254456	0.638205	5	-0.0021486	0.000162395
2	0	0	0	0	53.4801	0.213409	0.21349	0.531643	5	-0.00210066	0.0001135
2	0	0	0	0	53.5921	0.157428	0.157466	0.385478	5	-0.00204843	6.06999e-05
2	0	0	0	0	53.6741	0.116342	0.116389	0.283159	5	-0.00202097	3.29567e-05
2	0	0	0	0	53.7561	0.0753554	0.0753911	0.183141	5	-0.00200185	1.38072e-05
2	0	0	0	0	53.8381	0.0343691	0.0344225	0.0839974	5	-0.00199094	2.8914e-06
2	0	0	0	0	53.9201	-0.00661724	-0.00656241	-0.0159613	5	-0.00198814	1.04745e-07
2	0	0	0	0	54.0021	-0.0476036	-0.0475304	-0.119267	5	-0.00199375	5.66883e-06
2	0	0	0	0	54.0841	-0.0885899	-0.0885073	-0.224062	5	-0.00200782	1.98312e-05
2	0	0	0	0	54.1661	-0.129576	-0.129496	-0.337063	5	-0.00203078	4.36482e-05
2	0	0	0	0	54.2481	-0.170662	-0.17058	-0.458456	5	-0.00206339	7.82034e-05
2	0	0	0	0	54.3301	-0.211649	-0.211571	-0.598542	5	-0.00210661	0.000126634
2	0	0	0	0	54.4121	-0.252635	-0.25252	-0.842724	5	-0.00216417	0.000212805
2	0	0	0	0	54.5241	-0.308616	-0.308557	-1.32742	5	-0.00228465	0.000409584
2	0	0	0	0	54.6061	-0.349603	-0.34956	-1.57499	5	-0.00240265	0.000550551
2	0	0	0	0	54.6881	-0.390589	-0.390526	-1.9189	5	-0.00254563	0.000749381
2	0	0	0	0	54.7701	-0.431575	-0.431518	-2.19502	5	-0.00271409	0.000947191
2	0	0	0	0	54.8521	-0.472662	-0.47263	-2.53956	5	-0.00290814	0.00120027
2	0	0	0	0	54.9341	-0.513648	-0.513597	-2.86775	5	-0.00313031	0.00147287
2	0	0	0	0	55.0161	-0.554634	-0.554581	-3.15568	5	-0.00337725	0.00175008
2	0	0	0	0	55.0981	-0.595621	-0.595555	-3.44679	5	-0.00364781	0.00205275
2	0	0	0	0	55.1801	-0.636607	-0.636548	-3.79078	5	-0.00394514	0.00241301
2	0	0	0	0	55.2621	-0.677593	-0.677524	-4.08981	5	-0.00426848	0.00277094
2	0	0	0	0	55.3441	-0.718579	-0.718514	-4.40324	5	-0.00461656	0.00316379
2	0	0	0	0	55.4261	-0.759666	-0.759594	-4.69814	5	-0.00498932	0.00356868
2	0	0	0	0	55.5081	-0.800652	-0.800583	-5.0108	5	-0.0053869	0.00401157
2	0	0	0	0	55.5901	-0.841638	-0.841582	-5.20341	5	-0.00580786	0.00437909
2	0	0	0	0	55.6721	-0.882625	-0.882571	-5.42918	5	-0.00624508	0.00479164
2	0	0	0	0	55.7541	-0.923611	-0.923546	-5.54865	5	-0.00669635	0.00512444
2	0	0	0	0	55.8361	-0.964597	-0.964528	-5.58738	5	-0.00715402	0.00538918
2	0	0	0	0	55.9181	-1.00558	-1.0055	-5.7139	5	-0.00762114	0.00574534
2	0	0	0	0	56.0001	-1.04657	-1.04649	-5.82624	5	-0.00809176	0.0060971
2	0	0	1	0	56.0823	-1.08776	-1.08771	-6.10461	5	-0.00858162	0.00664003
2	0	0	1	0	56.1643	-1.12874	-1.12867	-6.32022	5	-0.00909026	0.00713347
2	0	0	1	0	56.2463	-1.16973	-1.16966	-6.63217	5	-0.00961887	0.0077574
2	0	0	1	0	56.3283	-1.21072	-1.21062	-6.73	5	-0.0101649	0.00814751
2	0	0	1	0	56.4103	-1.2517	-1.25163	-7.14621	5	-0.0107345	0.00894442
2	0	0	1	0	56.4923	-1.29269	-1.29262	-7.24905	5	-0.0113259	0.00937031
2	0	0	1	0	56.5743	-1.33367	-1.33358	-7.53177	5	-0.0119329	0.0100442
2	0	0	1	0	56.6563	-1.37476	-1.37466	-7.84738	5	-0.0125609	0.0107875
2	0	0	1	0	56.7383	-1.41575	-1.41563	-8.03016	5	-0.0132107	0.0113678
2	0	0	1	0	56.8203	-1.45673	-1.45664	-8.36057	5	-0.0138839	0.0121784
2	0	0	1	0	56.9023	-1.49772	-1.49763	-8.63498	5	-0.0145803	0.012932
2	1	0	1	1	56.9785	-1.46433	-1.46422	-8.37757	5	-0.01523	0.0122666
2	1	0	1	1	57.0605	-1.42334	-1.42325	-8.10844	5	-0.0159064	0.0115403
2	1	0	1	1	57.1425	-1.38236	-1.38226	-7.81427	5	-0.0165591	0.0108013
2	1	0	1	1	57.2245	-1.34127	-1.34119	-7.52024	5	-0.0171883	0.0100861
2	1	0	1	1	57.3065	-1.30029	-1.30019	-7.2794	5	-0.0177952	0.00946458
2	1	0	1	1	57.3885	-1.2593	-1.25922	-7.04485	5	-0.0183807	0.00887102
2	1	0	1	1	57.4705	-1.21831	-1.21825	-6.76576	5	-0.0189472	0.00824236
2	1	0	1	1	57.5525	-1.17733	-1.17725	-6.60816	5	-0.0194943	0.00777949
2	1	0	1	1	57.6345	-1.13634	-1.13627	-6.30838	5	-0.0200245	0.00716803
2	1	0	1	1	57.7165	-1.09535	-1.09529	-6.12499	5	-0.0205365	0.00670863
2	1	0	1	1	57.7985	-1.05437	-1.0543	-5.88421	5	-0.0210278	0.00620369
2	1	0	0	1	57.8807	-1.01318	-1.01313	-5.67398	5	-0.0215021	0.00574849
2	1	0	0	1	57.9627	-0.972195	-0.972129	-5.44302	5	-0.0219571	0.00529131
2	1	0	0	1	58.0447	-0.931208	-0.931158	-5.18412	5	-0.0223928	0.00482724
2	1	0	0	1	58.1267	-0.890222	-0.890146	-4.92137	5	-0.0228075	0.00438074
2	1	0	0	1	58.2087	-0.849236	-0.849185	-4.68966	5	-0.0232012	0.00398239
2	1	0	0	1	58.2907	-0.80825	-0.808192	-4.46498	5	-0.0235769	0.00360856
2	1	0	0	1	58.3727	-0.767263	-0.767198	-4.22169	5	-0.0239331	0.00323887
2	1	0	0	1	58.4547	-0.726177	-0.726098	-3.97078	5	-0.0242685	0.00288318
2	1	0	0	1	58.5367	-0.685191	-0.685105	-3.73038	5	-0.0245842	0.0025557
2	1	0	0	1	58.6187	-0.644204	-0.644127	-3.50495	5	-0.0248807	0.00225763
2	1	0	0	1	58.7007	-0.603218	-0.603158	-3.28125	5	-0.025159	0.00197911
2	1	0	0	1	58.7827	-0.562232	-0.562176	-3.04769	5	-0.0254185	0.00171333
2	1	0	0	1	58.8647	-0.521245	-0.521183	-2.81324	5	-0.0256588	0.00146622
2	1	0	0	1	58.9467	-0.480259	-0.480176	-2.582	5	-0.02588	0.00123981
2	1	0	0	1	59.0287	-0.439173	-0.439107	-2.35313	5	-0.0260822	0.00103328
2	1	0	0	1	59.1107	-0.398186	-0.398148	-2.12564	5	-0.0262659	0.000846318
2	1	0	0	1	59.1927	-0.3572	-0.357143	-1.9	5	-0.0264309	0.000678573
2	1	0	0	1	59.2747	-0.316214	-0.316153	-1.67596	5	-0.0265775	0.000529859
2	1	0	0	1	59.3567	-0.275228	-0.275191	-1.45285	5	-0.0267057	0.000399813
2	1	0	0	1	59.4387	-0.234241	-0.23419	-1.23227	5	-0.0268158	0.000288586
2	1	0	0	1	59.5207	-0.193255	-0.193218	-1.01379	5	-0.0269078	0.000195882
2	1	0	0	1	59.6027	-0.152269	-0.152227	-0.796097	5	-0.026982	0.000121187
2	1	0	0	1	59.6847	-0.111182	-0.111123	-0.579023	5	-0.0270383	6.43426e-05
2	1	0	0	1	59.7667	-0.070196	-0.0701328	-0.364136	5	-0.0270769	2.55379e-05
2	1	0	0	1	59.8787	-0.0142147	-0.0141509	-0.0729547	5	-0.0271029	1.03237e-06
2	1	0	0	1	59.9064	-0.000369326	-0.000323694	-0.000963396	5	-0.0271039	3.11845e-10