File: data_examples/SRDP_100ms.mpt
EC-Lab ASCII FILE
Nb header lines : 66

Chronoamperometry / Chronocoulometry

Run on channel : 1 (SN 3020)
User :
Electrode connection : standard
Ewe ctrl range : min = -10.00 V, max = 10.00 V
Ewe,I filtering : <None>
Channel : Grounded
Acquisition started on : 04/06/2022 13:48:24
Saved on :
	File : SRDP_2_1_01_srdp5x_cond1p5V_30xpulse-minus1V-read-plus200mV_t-100ms-dt-10-50-100-200-500ms-GISYA-EWE-materials_10_CA_C01.mpr
	Directory : C:\Users\AGH\Desktop\AnJ\2022-04-05-06_ITO_Ni[Me4Benzo]_Cu\
	Host : 192.109.209.128
Device : SP-300 (SN 0552)
Address : USB
EC-Lab for windows v11.20 (software)
Internet server v11.20 (firmware)
Command interpretor v11.20 (firmware)
Electrode material :
Initial state :
Electrolyte :
Comments :
Cable : standard
Electrode surface area : 0.001 cm²
Characteristic mass : 0.001 g
Equivalent Weight : 0.000 g/eq.
Density : 0.000 g/cm3
Ns                  0                   1                   2                   3                   4                   5                   6                   7
Ei (V)              0.000               0.200               0.000               -1.000              0.000               0.000               0.200               0.000
vs.                 Ref                 Ref                 Ref                 Ref                 Ref                 Ref                 Ref                 Ref
ti (h:m:s)          0:00:1.0000         0:00:1.0000         0:00:1.0000         0:00:0.1000         0:00:0.1000         0:00:0.0100         0:00:1.0000         0:00:0.1000
Imax                pass                pass                pass                pass                pass                pass                pass                pass
unit Imax           mA                  mA                  mA                  mA                  mA                  mA                  mA                  mA
Imin                pass                pass                pass                pass                pass                pass                pass                pass
unit Imin           mA                  mA                  mA                  mA                  mA                  mA                  mA                  mA
dQM                 0.000               0.000               0.000               0.000               0.000               0.000               0.000               0.000
unit dQM            mA.h                mA.h                mA.h                mA.h                mA.h                mA.h                mA.h                mA.h
record              I                   I                   I                   I                   I                   I                   I                   I
dI                  0.000               0.000               0.000               0.000               0.000               0.000               0.000               0.000
unit dI             µA                  µA                  µA                  µA                  µA                  µA                  µA                  µA
dQ                  0.000               0.000               0.000               0.000               0.000               0.000               0.000               0.000
unit dQ             mA.h                mA.h                mA.h                mA.h                mA.h                mA.h                mA.h                mA.h
dt (s)              0.5000              0.1000              0.1000              0.0050              0.0050              0.0010              0.1000              0.1000
dta (s)             0.1000              0.1000              0.1000              0.1000              0.1000              0.1000              0.1000              0.1000
E range min (V)     -10.000             -10.000             -10.000             -10.000             -10.000             -10.000             -10.000             -10.000
E range max (V)     10.000              10.000              10.000              10.000              10.000              10.000              10.000              10.000
I Range             100 mA              100 mA              100 mA              100 mA              100 mA              100 mA              100 mA              100 mA
I Range min         Unset               Unset               Unset               Unset               Unset               Unset               Unset               Unset
I Range max         Unset               Unset               Unset               Unset               Unset               Unset               Unset               Unset
I Range init        Unset               Unset               Unset               Unset               Unset               Unset               Unset               Unset
Bandwidth           5                   5                   5                   5                   5                   5                   5                   5
goto Ns'            0                   0                   0                   0                   3                   0                   0                   0
nc cycles           0                   0                   0                   0                   29                  0                   0                   0

Number of loops : 6
Loop 0 from point number 0 to 1308
Loop 1 from point number 1309 to 2617
Loop 2 from point number 2618 to 3926
Loop 3 from point number 3927 to 5235
Loop 4 from point number 5236 to 6544
Loop 5 from point number 6545 to 7853

mode	ox/red	error	control changes	Ns changes	counter inc.	Ns	time/s	control/V	Ewe/V	I/mA	dQ/C	(Q-Qo)/C	Q charge/discharge/mA.h	half cycle	Energy charge/W.h	Energy discharge/W.h	Capacitance charge/µF	Capacitance discharge/µF	Q discharge/mA.h	Q charge/mA.h	Capacity/mA.h	Efficiency/%	cycle number	P/W
2	1	0	0	0	0	0	442.742	2.54262e-05	6.96374e-05	0.0139745	0.0000000E+000	0.0000000E+000	0.000000000000000E+000	0	0.000000000000000E+000	0.000000000000000E+000	0.000000000000000E+000	0.000000000000000E+000	0.000000000000000E+000	0.000000000000000E+000	0.000000000000000E+000	0	0.000000000000000E+000	9.7315e-10
2	0	0	1	0	0	3	445.787	-0.999851	-0.999821	-11.1693	-0.000507577	0.00181671	-0.000140993	1	1.27712e-07	1.40974e-07	2.76856e+07	1.10882e+07	0.000140993	0.000000000000000E+000	0.000140993	0	0.000000000000000E+000	0.0111673
2	0	0	1	0	1	3	445.947	-0.999851	-0.99995	-11.0899	-5.77454e-05	0.00114974	-1.60404e-05	3	1.58585e-14	1.60395e-08	162326	540629	1.60404e-05	0.000000000000000E+000	1.60404e-05	0	1	0.0110893
2	1	0	0	0	1	4	446.112	2.54262e-05	0.000149774	0.0128288	8.71479e-07	0.000112387	2.42077e-07	4	1.31625e-14	0.000000000000000E+000	3262.46	0.000000000000000E+000	0.000000000000000E+000	2.42077e-07	2.42077e-07	0	2	1.92142e-09
2	1	0	0	0	0	4	446.272	2.54262e-05	0.000138326	0.00213513	3.71236e-07	-0.000965539	1.03125e-07	6	5.46709e-15	0.000000000000000E+000	2432.16	0.000000000000000E+000	0.000000000000000E+000	1.03125e-07	1.03125e-07	0	3	2.95345e-10
2	0	0	1	0	1	3	446.437	-0.999851	-0.999901	-10.7584	-0.0010287	-0.00199335	-0.000285751	7	2.04206e-14	2.85722e-07	17371.3	2.99631e+07	0.000285751	0.000000000000000E+000	0.000285751	0	3	0.0107573
2	0	0	1	0	0	3	446.597	-0.999851	-1	-9.96817	-0.000574371	-0.00261797	-0.000159547	9	-7.19864e-16	1.59536e-07	15655.6	7.51665e+06	0.000159547	0.000000000000000E+000	0.000159547	0	4	0.00996821
2	0	0	1	0	1	3	446.757	-0.999851	-0.999912	-10.3195	-0.000157562	-0.00322767	-4.37672e-05	11	1.838e-14	4.37658e-08	69421.4	1.87745e+06	4.37672e-05	0.000000000000000E+000	4.37672e-05	0	5	0.0103186
2	1	0	0	0	1	4	446.922	2.54262e-05	7.34534e-05	0.0036628	1.0165e-06	-0.00409668	2.82372e-07	12	1.83664e-14	0.000000000000000E+000	8593.08	0.000000000000000E+000	0.000000000000000E+000	2.82372e-07	2.82372e-07	0	6	2.69045e-10
2	1	0	0	0	0	4	447.082	2.54262e-05	-4.48438e-05	0.0155022	5.27633e-07	-0.00511203	1.46554e-07	14	5.01535e-15	0.000000000000000E+000	15361.9	0.000000000000000E+000	0.000000000000000E+000	1.46554e-07	1.46554e-07	0	7	6.95178e-10
2	1	0	0	1	1	4	447.242	2.54262e-05	7.34534e-05	0.00404473	8.08946e-10	-0.00611939	1.2935e-10	16	9.50122e-18	0.000000000000000E+000	0.000000000000000E+000	0.000000000000000E+000	0.000000000000000E+000	1.2935e-10	1.2935e-10	0	8	2.97099e-10
2	0	0	1	0	0	3	447.407	-0.999851	-0.999912	-9.37315	-0.00062572	-0.0067438	-0.000173811	17	1.11163e-14	1.73789e-07	31128.1	7.45584e+06	0.000173811	0.000000000000000E+000	0.000173811	0	8	0.00937233
2	0	0	1	0	1	3	447.567	-0.999851	-0.999878	-9.16157	-0.000231367	-0.00729692	-6.42685e-05	19	2.28366e-14	6.42638e-08	9238.21	3.03257e+06	6.42685e-05	0.000000000000000E+000	6.42685e-05	0	9	0.00916045
2	1	0	0	0	1	4	447.732	2.54262e-05	-0.000105901	0.0296331	1.11247e-06	-0.00797796	3.08889e-07	20	1.79177e-14	0.000000000000000E+000	6200.03	0.000000000000000E+000	0.000000000000000E+000	3.08889e-07	3.08889e-07	0	10	3.13816e-09
2	1	0	0	0	0	4	447.892	2.54262e-05	-5.24759e-05	0.0197033	6.00925e-07	-0.00888217	1.66862e-07	22	1.41629e-14	0.000000000000000E+000	78707.3	0.000000000000000E+000	0.000000000000000E+000	1.66862e-07	1.66862e-07	0	11	1.03395e-09
2	1	0	0	0	1	4	448.052	2.54262e-05	0.000103982	0.00824579	1.17792e-07	-0.00977803	3.2855e-08	24	3.09646e-15	0.000000000000000E+000	15497.7	0.000000000000000E+000	0.000000000000000E+000	3.2855e-08	3.2855e-08	0	12	8.57412e-10
2	0	0	1	0	0	3	448.217	-0.999851	-0.999977	-8.87933	-0.000669187	-0.0104461	-0.000185885	25	2.15936e-14	1.8587e-07	21818.5	7.01693e+06	0.000185885	0.000000000000000E+000	0.000185885	0	12	0.00887913
2	0	0	1	0	1	3	448.377	-0.999851	-0.99992	-8.86329	-0.000311481	-0.0109764	-8.65222e-05	27	1.17428e-14	8.65168e-08	21460.6	5.44351e+06	8.65222e-05	0.000000000000000E+000	8.65222e-05	0	13	0.00886258
2	1	0	0	0	1	4	448.542	2.54262e-05	0.000119246	0.0155022	1.24247e-06	-0.011548	3.45107e-07	28	1.21167e-14	0.000000000000000E+000	17135.2	0.000000000000000E+000	0.000000000000000E+000	3.45107e-07	3.45107e-07	0	14	1.84857e-09
2	1	0	0	0	0	4	448.702	2.54262e-05	3.1477e-05	0.0155022	7.55413e-07	-0.0124274	2.09806e-07	30	9.70193e-15	0.000000000000000E+000	3192.39	0.000000000000000E+000	0.000000000000000E+000	2.09806e-07	2.09806e-07	0	15	4.87963e-10
2	1	0	0	0	1	4	448.862	2.54262e-05	-1.04995e-05	0.0155022	2.39511e-07	-0.0133017	6.64861e-08	32	-2.28157e-16	0.000000000000000E+000	7840.26	0.000000000000000E+000	0.000000000000000E+000	6.64861e-08	6.64861e-08	0	16	1.62766e-10
2	0	0	1	0	0	3	449.027	-0.999851	-0.999908	-8.66889	-0.000740056	-0.0140408	-0.000205571	33	1.20891e-14	2.05553e-07	311906	8.07287e+06	0.000205571	0.000000000000000E+000	0.000205571	0	16	0.0086681
2	0	0	1	0	1	3	449.187	-0.999851	-0.999878	-8.53446	-0.00038526	-0.0145519	-0.000107016	35	1.10771e-14	1.07008e-07	7451.8	9.18122e+06	0.000107016	0.000000000000000E+000	0.000107016	0	17	0.00853342
2	0	0	1	0	0	3	449.347	-0.999851	-0.999946	-8.49207	-4.41364e-05	-0.0150613	-1.22601e-05	37	1.42836e-14	1.22594e-08	15064.8	275478	1.22601e-05	0.000000000000000E+000	1.22601e-05	0	18	0.00849161
2	1	0	0	0	0	4	449.512	2.54262e-05	-6.68341e-06	0.0124469	8.48182e-07	-0.0158672	2.35418e-07	38	4.39527e-15	0.000000000000000E+000	22209.1	0.000000000000000E+000	0.000000000000000E+000	2.35418e-07	2.35418e-07	0	19	8.31876e-11
2	1	0	0	0	1	4	449.672	2.54262e-05	0.000103982	0.0124469	3.55119e-07	-0.0167138	9.88237e-08	40	6.37834e-15	0.000000000000000E+000	3214.79	0.000000000000000E+000	0.000000000000000E+000	9.88237e-08	9.88237e-08	0	20	1.29425e-09
2	0	0	1	0	0	3	449.837	-0.999851	-0.999962	-8.43974	-0.000804545	-0.0175175	-0.000223485	41	1.40333e-14	2.23458e-07	12184.7	7.81136e+06	0.000223485	0.000000000000000E+000	0.000223485	0	20	0.00843942
2	0	0	1	0	1	3	449.997	-0.999851	-0.999805	-8.40194	-0.000464241	-0.018021	-0.000128956	43	1.57802e-14	1.28943e-07	29685.9	8.10474e+06	0.000128956	0.000000000000000E+000	0.000128956	0	21	0.0084003
2	0	0	1	0	0	3	450.157	-0.999851	-0.999855	-8.28316	-0.000125879	-0.0185204	-3.49665e-05	45	1.28798e-14	3.49625e-08	322645	5.49976e+06	3.49665e-05	0.000000000000000E+000	3.49665e-05	0	22	0.00828196
2	1	0	0	0	0	4	450.322	2.54262e-05	7.72694e-05	0.00404473	1.04216e-06	-0.0192178	2.89745e-07	46	2.01514e-14	0.000000000000000E+000	39048.7	0.000000000000000E+000	0.000000000000000E+000	2.89745e-07	2.89745e-07	0	23	3.12534e-10
2	1	0	0	0	1	4	450.482	2.54262e-05	0.00015359	0.00289897	4.90206e-07	-0.0200346	1.36077e-07	48	1.05422e-14	0.000000000000000E+000	3056.5	0.000000000000000E+000	0.000000000000000E+000	1.36077e-07	1.36077e-07	0	24	4.45253e-10
2	1	0	0	1	0	4	450.642	2.54262e-05	-1.04994e-05	0.00519048	1.0381e-09	-0.0208471	5.17401e-10	50	-5.4324e-18	0.000000000000000E+000	0.000000000000000E+000	0.000000000000000E+000	0.000000000000000E+000	5.17401e-10	5.17401e-10	0	25	5.44969e-11
2	0	0	1	0	1	3	450.807	-0.999851	-0.999798	-8.09946	-0.00052891	-0.0213748	-0.00014692	51	1.92448e-14	1.46902e-07	11108.7	6.59751e+06	0.00014692	0.000000000000000E+000	0.00014692	0	25	0.00809782
2	0	0	1	0	0	3	450.967	-0.999851	-1	-8.08304	-0.000203697	-0.0218593	-5.65825e-05	53	2.61246e-14	5.65757e-08	9017.18	2.54276e+06	5.65825e-05	0.000000000000000E+000	5.65825e-05	0	26	0.00808303
2	1	0	0	0	0	4	451.132	2.54262e-05	3.91091e-05	0.00442663	1.10797e-06	-0.0224624	3.07854e-07	54	1.39649e-14	0.000000000000000E+000	58085.5	0.000000000000000E+000	0.000000000000000E+000	3.07854e-07	3.07854e-07	0	27	1.73121e-10
2	1	0	0	0	1	4	451.292	2.54262e-05	0.000142142	0.00633622	6.10091e-07	-0.0232672	1.69708e-07	56	6.84244e-15	0.000000000000000E+000	3723.25	0.000000000000000E+000	0.000000000000000E+000	1.69708e-07	1.69708e-07	0	28	9.00644e-10
2	1	0	0	0	0	4	451.452	2.54262e-05	0.000100166	0.00289897	1.13667e-07	-0.0240698	3.15615e-08	58	2.79808e-15	0.000000000000000E+000	1240.61	0.000000000000000E+000	0.000000000000000E+000	3.15615e-08	3.15615e-08	0	29	2.90377e-10
2	0	0	1	0	1	3	451.617	-0.999851	-0.999901	-8.0204	-0.00060305	-0.0246718	-0.000167514	59	2.56134e-14	1.67495e-07	31922.4	2.25837e+07	0.000167514	0.000000000000000E+000	0.000167514	0	29	0.00801961
2	1	0	0	0	0	5	451.749	2.54262e-05	-2.57638e-05	0.0197033	9.42769e-08	-0.0248694	3.75633e-07	60	1.52119e-14	0.000000000000000E+000	354373	0.000000000000000E+000	0.000000000000000E+000	3.75633e-07	3.75633e-07	0	30	5.07631e-10
2	1	0	0	0	0	2	471.553	2.54262e-05	2.7661e-05	0.0105373	3.7684e-06	0.00226555	0.000629321	62	1.24955e-07	0.000000000000000E+000	3.29829e+07	0.000000000000000E+000	0.000000000000000E+000	0.000629321	0.000629321	0	31	2.91472e-10
2	1	0	0	0	0	4	472.378	2.54262e-05	0.000111614	0.00939155	3.22598e-07	0.00121245	8.96075e-08	64	3.29085e-15	0.000000000000000E+000	2348.18	0.000000000000000E+000	0.000000000000000E+000	8.96075e-08	8.96075e-08	0	32	1.04823e-09
2	0	0	1	0	1	3	472.543	-0.999851	-1.00004	-10.1095	-0.000927133	0.000286266	-0.000257537	65	2.29976e-14	2.57516e-07	10063.6	8.38077e+06	0.000257537	0.000000000000000E+000	0.000257537	0	32	0.0101099
2	0	0	1	0	0	3	472.703	-0.999851	-0.999779	-9.99414	-0.000503449	-0.000314915	-0.000139847	67	2.04608e-14	1.3983e-07	54391.6	5.49901e+06	0.000139847	0.000000000000000E+000	0.000139847	0	33	0.00999193
2	0	0	1	0	1	3	472.863	-0.999851	-0.99992	-9.88988	-0.000100833	-0.00091021	-2.80091e-05	69	1.70776e-14	2.80062e-08	47288	574428	2.80091e-05	0.000000000000000E+000	2.80091e-05	0	34	0.00988909
2	1	0	0	0	1	4	473.028	2.54262e-05	3.5293e-05	0.0101554	9.64573e-07	-0.00179456	2.67949e-07	70	1.57888e-14	0.000000000000000E+000	21065	0.000000000000000E+000	0.000000000000000E+000	2.67949e-07	2.67949e-07	0	35	3.58413e-10
2	1	0	0	0	0	4	473.188	2.54262e-05	0.000157406	0.00442663	4.27971e-07	-0.0027719	1.18873e-07	72	9.48091e-15	0.000000000000000E+000	2336.32	0.000000000000000E+000	0.000000000000000E+000	1.18873e-07	1.18873e-07	0	36	6.96779e-10
2	0	0	1	0	1	3	473.353	-0.999851	-0.999935	-9.66799	-0.000971574	-0.00374266	-0.000269882	73	2.65705e-14	2.69855e-07	36432	6.70243e+06	0.000269882	0.000000000000000E+000	0.000269882	0	36	0.00966736
2	0	0	1	0	0	3	473.513	-0.999851	-0.999817	-10.2	-0.000583041	-0.00432447	-0.000161956	75	2.57129e-14	1.61937e-07	5849.54	1.91051e+07	0.000161956	0.000000000000000E+000	0.000161956	0	37	0.0101981
2	0	0	1	0	1	3	473.673	-0.999851	-0.999798	-9.85093	-0.000200807	-0.00492762	-5.57796e-05	77	1.48915e-14	5.57731e-08	7455.29	8.77338e+06	5.57796e-05	0.000000000000000E+000	5.57796e-05	0	38	0.00984893
2	1	0	0	0	1	4	473.838	2.54262e-05	-9.44525e-05	0.025814	9.97763e-07	-0.00569406	2.77198e-07	78	8.49038e-15	0.000000000000000E+000	10460.2	0.000000000000000E+000	0.000000000000000E+000	2.77198e-07	2.77198e-07	0	39	2.43819e-09
2	1	0	0	0	0	4	473.998	2.54262e-05	2.76609e-05	0.0128288	5.81695e-07	-0.00662975	1.61559e-07	80	1.60237e-14	0.000000000000000E+000	0.000000000000000E+000	0.000000000000000E+000	0.000000000000000E+000	1.61559e-07	1.61559e-07	0	40	3.54855e-10
2	1	0	0	0	1	4	474.158	2.54262e-05	6.96374e-05	0.00213513	6.07519e-08	-0.00754579	1.69449e-08	82	1.13261e-15	0.000000000000000E+000	999.098	0.000000000000000E+000	0.000000000000000E+000	1.69449e-08	1.69449e-08	0	41	1.48685e-10
2	0	0	1	0	0	3	474.323	-0.999851	-0.999882	-8.87437	-0.00062904	-0.00817368	-0.000174733	83	1.65202e-14	1.74716e-07	24480.6	5.49377e+06	0.000174733	0.000000000000000E+000	0.000174733	0	41	0.00887332
2	0	0	1	0	1	3	474.483	-0.999851	-0.999844	-8.71473	-0.000264179	-0.00869989	-7.3383e-05	85	1.81799e-14	7.33736e-08	6237.47	9.84931e+06	7.3383e-05	0.000000000000000E+000	7.3383e-05	0	42	0.00871336
2	1	0	0	0	1	4	474.648	2.54262e-05	-7.53722e-05	0.0185575	1.16799e-06	-0.00929734	3.24411e-07	86	1.32116e-14	0.000000000000000E+000	16107.6	0.000000000000000E+000	0.000000000000000E+000	3.24411e-07	3.24411e-07	0	43	1.39872e-09
2	1	0	0	0	0	4	474.808	2.54262e-05	-1.81315e-05	0.0109192	6.42231e-07	-0.0101365	1.78245e-07	88	8.56138e-15	0.000000000000000E+000	5095.57	0.000000000000000E+000	0.000000000000000E+000	1.78245e-07	1.78245e-07	0	44	1.97982e-10
2	1	0	0	0	1	4	474.968	2.54262e-05	2.38449e-05	0.0135926	1.79339e-07	-0.0109752	4.96705e-08	90	4.51623e-15	0.000000000000000E+000	7809.72	0.000000000000000E+000	0.000000000000000E+000	4.96705e-08	4.96705e-08	0	45	3.24115e-10
2	0	0	1	0	0	3	475.133	-0.999851	-0.999977	-8.2824	-0.000663754	-0.0116379	-0.000184376	91	1.85578e-14	1.84356e-07	316288	4.83331e+06	0.000184376	0.000000000000000E+000	0.000184376	0	45	0.00828221
2	0	0	1	0	1	3	475.293	-0.999851	-0.99987	-8.18959	-0.000330009	-0.0121301	-9.1669e-05	93	2.16317e-14	9.16568e-08	80477.5	4.5494e+06	9.1669e-05	0.000000000000000E+000	9.1669e-05	0	46	0.00818853
2	0	0	1	1	0	3	475.453	-0.999851	-0.999916	-8.13039	-1.62608e-06	-0.0126199	-4.51691e-07	95	2.32863e-14	4.51653e-10	9057.92	0.000000000000000E+000	4.51691e-07	0.000000000000000E+000	4.51691e-07	0	47	0.00812971
2	1	0	0	0	0	4	475.618	2.54262e-05	-2.57636e-05	0.0132107	8.233e-07	-0.0134326	2.28691e-07	96	1.09242e-14	0.000000000000000E+000	43148.5	0.000000000000000E+000	0.000000000000000E+000	2.28691e-07	2.28691e-07	0	48	3.40356e-10
2	1	0	0	0	1	4	475.778	2.54262e-05	6.58213e-05	0.0189395	3.1305e-07	-0.0142407	8.69234e-08	98	5.49731e-15	0.000000000000000E+000	2277.84	0.000000000000000E+000	0.000000000000000E+000	8.69234e-08	8.69234e-08	0	49	1.24662e-09
2	0	0	1	0	0	3	475.943	-0.999851	-0.999882	-7.98641	-0.000722786	-0.0149626	-0.000200774	99	1.75602e-14	2.0075e-07	21053.8	6.31251e+06	0.000200774	0.000000000000000E+000	0.000200774	0	49	0.00798547
2	0	0	1	0	1	3	476.103	-0.999851	-0.999805	-7.95509	-0.000399806	-0.0154395	-0.000111057	101	2.05379e-14	1.11042e-07	4341.42	3.48992e+06	0.000111057	0.000000000000000E+000	0.000111057	0	50	0.00795354
2	0	0	1	0	0	3	476.263	-0.999851	-0.999973	-7.91881	-8.07147e-05	-0.0159145	-2.24206e-05	103	1.85829e-14	2.24191e-08	5813.73	1.17446e+06	2.24206e-05	0.000000000000000E+000	2.24206e-05	0	51	0.0079186
2	1	0	0	0	0	4	476.428	2.54262e-05	6.58214e-05	0.0174118	9.18972e-07	-0.0166244	2.55079e-07	104	1.28783e-14	0.000000000000000E+000	14155.1	0.000000000000000E+000	0.000000000000000E+000	2.55079e-07	2.55079e-07	0	52	1.14607e-09
2	1	0	0	0	1	4	476.588	2.54262e-05	8.10855e-05	0.00900964	4.14069e-07	-0.017411	1.14863e-07	106	1.10802e-15	0.000000000000000E+000	5418.01	0.000000000000000E+000	0.000000000000000E+000	1.14863e-07	1.14863e-07	0	53	7.30551e-10
2	0	0	1	0	0	3	476.753	-0.999851	-0.999756	-7.84014	-0.000784441	-0.0181946	-0.000217901	107	1.49169e-14	2.17871e-07	52716	5.87009e+06	0.000217901	0.000000000000000E+000	0.000217901	0	53	0.00783822
2	0	0	1	0	1	3	476.913	-0.999851	-0.999809	-7.81111	-0.000471262	-0.0186646	-0.000130906	109	1.21113e-14	1.30891e-07	8210.25	5.88279e+06	0.000130906	0.000000000000000E+000	0.000130906	0	54	0.00780962
2	0	0	1	0	0	3	477.073	-0.999851	-0.99971	-7.8176	-0.000157693	-0.0191321	-4.38037e-05	111	2.70873e-14	4.37962e-08	15619.5	1.25209e+06	4.38037e-05	0.000000000000000E+000	4.38037e-05	0	55	0.00781534
2	1	0	0	0	0	4	477.238	2.54262e-05	-0.000105901	0.0109192	1.01518e-06	-0.0197522	2.81984e-07	112	1.62149e-14	0.000000000000000E+000	7389.44	0.000000000000000E+000	0.000000000000000E+000	2.81984e-07	2.81984e-07	0	56	1.15635e-09
2	1	0	0	0	1	4	477.398	2.54262e-05	5.43732e-05	0.00900962	5.39684e-07	-0.0205274	1.49529e-07	114	7.63676e-15	0.000000000000000E+000	3066.6	0.000000000000000E+000	0.000000000000000E+000	1.49529e-07	1.49529e-07	0	57	4.89882e-10
2	1	0	0	0	0	4	477.558	2.54262e-05	-4.10278e-05	0.00289897	6.11338e-08	-0.0212989	1.70742e-08	116	-5.97849e-16	0.000000000000000E+000	619.524	0.000000000000000E+000	0.000000000000000E+000	1.70742e-08	1.70742e-08	0	58	1.18938e-10
2	0	0	1	0	1	3	477.723	-0.999851	-0.999843	-7.70647	-0.000541182	-0.0218389	-0.000150328	117	8.23205e-15	1.50314e-07	20858.5	2.37063e+07	0.000150328	0.000000000000000E+000	0.000150328	0	58	0.00770526
2	0	0	1	0	0	3	477.883	-0.999851	-1	-7.7057	-0.000233242	-0.0223005	-6.4789e-05	119	1.83259e-14	6.4783e-08	15568.1	1.4214e+06	6.4789e-05	0.000000000000000E+000	6.4789e-05	0	59	0.0077057
2	1	0	0	0	0	4	478.048	2.54262e-05	0.000123062	0.0124469	1.10657e-06	-0.022836	3.07336e-07	120	1.26534e-14	0.000000000000000E+000	7434.28	0.000000000000000E+000	0.000000000000000E+000	3.07336e-07	3.07336e-07	0	60	1.53174e-09
2	1	0	0	0	1	4	478.208	2.54262e-05	3.91091e-05	0.0113011	6.11677e-07	-0.0235988	1.69708e-07	122	1.18002e-14	0.000000000000000E+000	4002.49	0.000000000000000E+000	0.000000000000000E+000	1.69708e-07	1.69708e-07	0	61	4.41977e-10
2	1	0	0	0	0	0	495.764	2.54262e-05	8.58066e-06	0.0124469	0.0000000E+000	0.0000000E+000	0.000388899	124	0.000000000000000E+000	0.000000000000000E+000	0.000000000000000E+000	0.000000000000000E+000	0.000000000000000E+000	0.000388899	0.000388899	0	62	1.06802e-10
2	0	0	1	0	0	3	498.809	-0.999851	-0.999832	-11.6986	-0.000531666	0.00188678	-0.000147685	125	1.32922e-07	1.47674e-07	1.26753e+08	3.16532e+06	0.000147685	0.000000000000000E+000	0.000147685	0	62	0.0116967
2	0	0	1	0	1	3	498.969	-0.999851	-0.999821	-11.5535	-6.00935e-05	0.00119054	-1.66926e-05	127	2.42733e-14	1.66897e-08	16050.9	1.21178e+06	1.66926e-05	0.000000000000000E+000	1.66926e-05	0	63	0.0115514
2	1	0	0	0	1	4	499.134	2.54262e-05	0.000126878	0.0151203	9.42363e-07	0.000102492	2.61767e-07	128	1.7385e-14	0.000000000000000E+000	5368.41	0.000000000000000E+000	0.000000000000000E+000	2.61767e-07	2.61767e-07	0	64	1.91843e-09
2	1	0	0	0	0	4	499.294	2.54262e-05	9.25336e-05	0.016266	3.74903e-07	-0.00103296	1.04127e-07	130	1.00526e-14	0.000000000000000E+000	49115.8	0.000000000000000E+000	0.000000000000000E+000	1.04127e-07	1.04127e-07	0	65	1.50516e-09
2	0	0	1	0	1	3	499.459	-0.999851	-0.999916	-10.1939	-0.00103121	-0.00206328	-0.000286447	131	2.07011e-14	2.8641e-07	7881.66	1.03909e+07	0.000286447	0.000000000000000E+000	0.000286447	0	65	0.010193
2	0	0	1	0	0	3	499.619	-0.999851	-0.999756	-10.106	-0.000537491	-0.0026481	-0.000149303	133	1.49914e-14	1.49279e-07	7114.72	4.69667e+06	0.000149303	0.000000000000000E+000	0.000149303	0	66	0.0101036
2	0	0	1	0	1	3	499.779	-0.999851	-0.999905	-9.85398	-0.000150289	-0.00324608	-4.1747e-05	135	2.81323e-14	4.1742e-08	32782.7	2.31749e+06	4.1747e-05	0.000000000000000E+000	4.1747e-05	0	67	0.00985304
2	1	0	0	0	1	4	499.944	2.54262e-05	-6.77401e-05	0.0155022	9.6127e-07	-0.00407896	2.67108e-07	136	1.12065e-14	0.000000000000000E+000	7199.61	0.000000000000000E+000	0.000000000000000E+000	2.67108e-07	2.67108e-07	0	68	1.05012e-09
2	1	0	0	0	0	4	500.104	2.54262e-05	5.05572e-05	0.00289897	4.69658e-07	-0.00502276	1.30515e-07	138	1.61334e-14	0.000000000000000E+000	7695.34	0.000000000000000E+000	0.000000000000000E+000	1.30515e-07	1.30515e-07	0	69	1.46564e-10
2	1	0	0	1	1	4	500.264	2.54262e-05	7.72695e-05	0.00328089	6.56179e-10	-0.0059851	2.58701e-10	140	1.99897e-17	0.000000000000000E+000	0.000000000000000E+000	0.000000000000000E+000	0.000000000000000E+000	2.58701e-10	2.58701e-10	0	70	2.53513e-10
2	0	0	1	0	0	3	500.429	-0.999851	-0.999824	-8.61161	-0.000641097	-0.00662503	-0.000178082	141	2.37591e-14	1.78057e-07	7336.17	4.8017e+06	0.000178082	0.000000000000000E+000	0.000178082	0	70	0.0086101
2	0	0	1	0	1	3	500.589	-0.999851	-0.999847	-9.71305	-0.000210278	-0.00712819	-5.84106e-05	143	1.208e-14	5.84058e-08	310687	4.5936e+06	5.84106e-05	0.000000000000000E+000	5.84106e-05	0	71	0.00971157
2	1	0	0	0	1	4	500.754	2.54262e-05	2.76609e-05	0.0181756	1.06825e-06	-0.00780813	2.9673e-07	144	7.72061e-15	0.000000000000000E+000	93310.5	0.000000000000000E+000	0.000000000000000E+000	2.9673e-07	2.9673e-07	0	72	5.02753e-10
2	1	0	0	0	0	4	500.914	2.54262e-05	0.000119246	0.00557237	6.10168e-07	-0.00864673	1.69449e-07	146	9.10489e-15	0.000000000000000E+000	9403.28	0.000000000000000E+000	0.000000000000000E+000	1.69449e-07	1.69449e-07	0	73	6.64482e-10
2	1	0	0	0	1	4	501.074	2.54262e-05	0.000111614	0.0101554	1.11987e-07	-0.00948451	3.13028e-08	148	2.86892e-15	0.000000000000000E+000	602.666	0.000000000000000E+000	0.000000000000000E+000	3.13028e-08	3.13028e-08	0	74	1.13348e-09
2	0	0	1	0	0	3	501.239	-0.999851	-0.999836	-8.30493	-0.000624045	-0.0101075	-0.000173346	149	2.32382e-14	1.73321e-07	4772.63	4.81147e+06	0.000173346	0.000000000000000E+000	0.000173346	0	74	0.00830357
2	0	0	1	0	1	3	501.399	-0.999851	-0.999782	-8.26368	-0.00029056	-0.0106025	-8.0711e-05	151	3.27917e-14	8.0701e-08	12232	2.53895e+06	8.0711e-05	0.000000000000000E+000	8.0711e-05	0	75	0.00826188
2	1	0	0	0	1	4	501.564	2.54262e-05	-7.53721e-05	0.0219948	1.11109e-06	-0.0111339	3.0863e-07	152	1.74318e-14	0.000000000000000E+000	7465.58	0.000000000000000E+000	0.000000000000000E+000	3.0863e-07	3.0863e-07	0	76	1.65779e-09
2	1	0	0	0	0	4	501.724	2.54262e-05	9.48695e-07	0.0132107	6.86286e-07	-0.0119478	1.90662e-07	154	1.29554e-14	0.000000000000000E+000	5620.88	0.000000000000000E+000	0.000000000000000E+000	1.90662e-07	1.90662e-07	0	77	1.25329e-11
2	1	0	0	0	1	4	501.884	2.54262e-05	0.000123062	0.0109192	2.24846e-07	-0.0127619	6.26056e-08	156	3.94012e-15	0.000000000000000E+000	2567.88	0.000000000000000E+000	0.000000000000000E+000	6.26056e-08	6.26056e-08	0	78	1.34374e-09
2	0	0	1	0	0	3	502.049	-0.999851	-0.999916	-8.01505	-0.000684919	-0.0134459	-0.000190255	157	1.93464e-14	1.90234e-07	11780.3	5.98491e+06	0.000190255	0.000000000000000E+000	0.000190255	0	78	0.00801438
2	0	0	1	0	1	3	502.209	-0.999851	-0.99992	-7.96999	-0.000361239	-0.0139247	-0.000100344	159	1.26847e-14	1.00327e-07	10764.6	3.2654e+06	0.000100344	0.000000000000000E+000	0.000100344	0	79	0.00796935
2	0	0	1	0	0	3	502.369	-0.999851	-0.999885	-7.90965	-4.11921e-05	-0.0144007	-1.14423e-05	161	1.49395e-14	1.1441e-08	24547.9	599387	1.14423e-05	0.000000000000000E+000	1.14423e-05	0	80	0.00790874
2	1	0	0	0	0	4	502.534	2.54262e-05	6.20053e-05	0.0116831	8.08158e-07	-0.0151485	2.24552e-07	162	2.48005e-14	0.000000000000000E+000	7845.92	0.000000000000000E+000	0.000000000000000E+000	2.24552e-07	2.24552e-07	0	81	7.24411e-10
2	1	0	0	0	1	4	502.694	2.54262e-05	0.000195567	0.00900962	3.45572e-07	-0.0159337	9.62367e-08	164	8.97028e-15	0.000000000000000E+000	2928.66	0.000000000000000E+000	0.000000000000000E+000	9.62367e-08	9.62367e-08	0	82	1.76198e-09
2	0	0	1	0	0	3	502.859	-0.999851	-0.999943	-7.88406	-0.000748019	-0.0166809	-0.000207783	165	2.4991e-14	2.07759e-07	61403.7	4.45498e+06	0.000207783	0.000000000000000E+000	0.000207783	0	82	0.0078836
2	0	0	1	0	1	3	503.019	-0.999851	-0.99984	-7.86572	-0.000433249	-0.0171507	-0.000120347	167	2.50349e-14	1.20329e-07	22522.8	8.11241e+06	0.000120347	0.000000000000000E+000	0.000120347	0	83	0.00786446
2	0	0	1	0	0	3	503.179	-0.999851	-1	-7.83823	-0.000119131	-0.0176209	-3.3092e-05	169	2.43074e-14	3.30894e-08	37584.3	780128	3.3092e-05	0.000000000000000E+000	3.3092e-05	0	84	0.00783826
2	1	0	0	0	0	4	503.344	2.54262e-05	0.000100166	0.00480855	9.4523e-07	-0.0182836	2.62323e-07	170	2.30377e-14	0.000000000000000E+000	13748.4	0.000000000000000E+000	0.000000000000000E+000	2.62323e-07	2.62323e-07	0	85	4.81652e-10
2	1	0	0	0	1	4	503.504	2.54262e-05	8.87176e-05	0.00862771	4.61867e-07	-0.0190616	1.28316e-07	172	5.87915e-15	0.000000000000000E+000	12105.2	0.000000000000000E+000	0.000000000000000E+000	1.28316e-07	1.28316e-07	0	86	7.6543e-10
2	1	0	0	1	0	4	503.664	2.54262e-05	5.0557e-05	0.012065	2.41299e-09	-0.0198393	5.17401e-10	174	2.61583e-17	0.000000000000000E+000	0.000000000000000E+000	0.000000000000000E+000	0.000000000000000E+000	5.17401e-10	5.17401e-10	0	87	6.09968e-10
2	0	0	1	0	1	3	503.829	-0.999851	-0.999859	-7.7691	-0.000506537	-0.0203447	-0.000140705	175	2.23632e-14	1.40691e-07	11979	1.89271e+07	0.000140705	0.000000000000000E+000	0.000140705	0	87	0.007768
2	0	0	1	0	0	3	503.989	-0.999851	-0.999988	-7.7523	-0.000195498	-0.0208094	-5.43049e-05	177	1.16795e-14	5.4298e-08	16731.3	1.42357e+06	5.43049e-05	0.000000000000000E+000	5.43049e-05	0	88	0.00775221
2	1	0	0	0	0	4	504.154	2.54262e-05	7.72694e-05	0.0128288	1.05129e-06	-0.0213889	2.92332e-07	178	1.80175e-14	0.000000000000000E+000	9509.73	0.000000000000000E+000	0.000000000000000E+000	2.92332e-07	2.92332e-07	0	89	9.91273e-10
2	1	0	0	0	1	4	504.314	2.54262e-05	-1.04995e-05	0.0193214	5.88551e-07	-0.0221665	1.63499e-07	180	1.51805e-14	0.000000000000000E+000	17138	0.000000000000000E+000	0.000000000000000E+000	1.63499e-07	1.63499e-07	0	90	2.02866e-10
2	1	0	0	0	0	4	504.474	2.54262e-05	8.10855e-05	0.00862771	1.24285e-07	-0.0229404	3.46659e-08	182	3.89683e-15	0.000000000000000E+000	1021.98	0.000000000000000E+000	0.000000000000000E+000	3.46659e-08	3.46659e-08	0	91	6.99582e-10
2	0	0	1	0	1	3	504.639	-0.999851	-0.999836	-7.74007	-0.000582049	-0.0235214	-0.00016168	183	1.78362e-14	1.61657e-07	8311.05	1.52581e+08	0.00016168	0.000000000000000E+000	0.00016168	0	91	0.0077388
2	1	0	0	0	0	5	504.771	2.54262e-05	-1.04995e-05	0.0128288	8.77843e-08	-0.0237118	3.5442e-07	184	2.51824e-14	0.000000000000000E+000	66871	0.000000000000000E+000	0.000000000000000E+000	3.5442e-07	3.5442e-07	0	92	1.34696e-10
2	1	0	0	0	0	2	524.575	2.54262e-05	7.34534e-05	0.0174118	3.87374e-06	0.00218207	0.000606131	186	1.20315e-07	0.000000000000000E+000	6.3535e+07	0.000000000000000E+000	0.000000000000000E+000	0.000606131	0.000606131	0	93	1.27895e-09
2	1	0	0	0	0	4	525.4	2.54262e-05	5.43732e-05	0.016648	3.32834e-07	0.00117803	9.24532e-08	188	5.30413e-15	0.000000000000000E+000	2907.3	0.000000000000000E+000	0.000000000000000E+000	9.24532e-08	9.24532e-08	0	94	9.05203e-10
2	0	0	1	0	1	3	525.565	-0.999851	-0.99992	-9.38652	-0.000858423	0.000320593	-0.000238451	189	1.76144e-14	2.3842e-07	11505.1	7.25905e+06	0.000238451	0.000000000000000E+000	0.000238451	0	94	0.00938576
2	0	0	1	0	0	3	525.725	-0.999851	-0.999908	-9.26468	-0.000467883	-0.000237937	-0.000129967	191	3.11773e-14	1.29953e-07	9302.33	6.08509e+07	0.000129967	0.000000000000000E+000	0.000129967	0	95	0.00926383
2	0	0	1	0	1	3	525.885	-0.999851	-0.999798	-9.15737	-9.3483e-05	-0.000789361	-2.59675e-05	193	2.63184e-14	2.59648e-08	17686.7	700171	2.59675e-05	0.000000000000000E+000	2.59675e-05	0	96	0.00915551
2	1	0	0	0	1	4	526.05	2.54262e-05	4.29251e-05	0.016266	9.89856e-07	-0.00160499	2.74967e-07	194	1.42247e-14	0.000000000000000E+000	7860.6	0.000000000000000E+000	0.000000000000000E+000	2.74967e-07	2.74967e-07	0	97	6.98221e-10
2	1	0	0	0	0	4	526.21	2.54262e-05	3.9109e-05	0.0242863	4.59288e-07	-0.00250299	1.27539e-07	196	6.34807e-15	0.000000000000000E+000	6015.95	0.000000000000000E+000	0.000000000000000E+000	1.27539e-07	1.27539e-07	0	98	9.49812e-10
2	0	0	1	0	1	3	526.375	-0.999851	-0.99976	-8.89117	-0.000891693	-0.00339384	-0.000247692	197	2.37754e-14	2.47656e-07	5148.26	8.05607e+06	0.000247692	0.000000000000000E+000	0.000247692	0	98	0.00888903
2	0	0	1	0	0	3	526.535	-0.999851	-0.999981	-8.85145	-0.000533863	-0.00392646	-0.000148295	199	2.39473e-14	1.48279e-07	24996.8	2.97665e+06	0.000148295	0.000000000000000E+000	0.000148295	0	99	0.00885128
2	0	0	1	0	1	3	526.695	-0.999851	-0.999817	-8.85565	-0.000178892	-0.00445638	-4.96923e-05	201	2.05528e-14	4.96843e-08	15944.9	5.86194e+06	4.96923e-05	0.000000000000000E+000	4.96923e-05	0	100	0.00885403
2	1	0	0	0	1	4	526.86	2.54262e-05	0.000218463	0.0101554	1.07415e-06	-0.00516703	2.98411e-07	202	3.07371e-14	0.000000000000000E+000	4201.74	0.000000000000000E+000	0.000000000000000E+000	2.98411e-07	2.98411e-07	0	101	2.21858e-09
2	1	0	0	0	0	4	527.02	2.54262e-05	4.29251e-05	0.021231	5.86201e-07	-0.00609767	1.62723e-07	204	1.68047e-14	0.000000000000000E+000	51170.3	0.000000000000000E+000	0.000000000000000E+000	1.62723e-07	1.62723e-07	0	102	9.1134e-10
2	1	0	0	0	1	4	527.18	2.54262e-05	7.34534e-05	0.00862772	6.34252e-08	-0.00694689	1.7721e-08	206	1.25033e-15	0.000000000000000E+000	1285.98	0.000000000000000E+000	0.000000000000000E+000	1.7721e-08	1.7721e-08	0	103	6.33735e-10
2	0	0	1	0	0	3	527.345	-0.999851	-0.999897	-8.43554	-0.000592788	-0.00753851	-0.000164663	207	2.95372e-14	1.64642e-07	9751.1	5.54985e+06	0.000164663	0.000000000000000E+000	0.000164663	0	103	0.00843467
2	0	0	1	0	1	3	527.505	-0.999851	-0.999679	-8.44738	-0.000254817	-0.00804371	-7.07825e-05	209	2.64533e-14	7.07714e-08	6711.51	3.0363e+06	7.07825e-05	0.000000000000000E+000	7.07825e-05	0	104	0.00844468
2	1	0	0	0	1	4	527.67	2.54262e-05	2.76609e-05	0.00710006	1.21091e-06	-0.00863099	3.36311e-07	210	3.13234e-14	0.000000000000000E+000	21151.5	0.000000000000000E+000	0.000000000000000E+000	3.36311e-07	3.36311e-07	0	105	1.96394e-10
2	1	0	0	0	0	4	527.83	2.54262e-05	1.23966e-05	0.0147384	6.43147e-07	-0.00947167	1.78762e-07	212	1.85485e-14	0.000000000000000E+000	9369.01	0.000000000000000E+000	0.000000000000000E+000	1.78762e-07	1.78762e-07	0	106	1.82706e-10
2	1	0	0	0	1	4	527.99	2.54262e-05	2.7661e-05	0.0101554	1.85068e-07	-0.0103102	5.12227e-08	214	2.18887e-15	0.000000000000000E+000	24161.8	0.000000000000000E+000	0.000000000000000E+000	5.12227e-08	5.12227e-08	0	107	2.80908e-10
2	0	0	1	0	0	3	528.155	-0.999851	-0.999908	-8.36298	-0.000672194	-0.0109813	-0.000186721	215	2.87562e-14	1.86695e-07	9173.58	3.52423e+07	0.000186721	0.000000000000000E+000	0.000186721	0	107	0.00836221
2	0	0	1	0	1	3	528.315	-0.999851	-0.999874	-8.35534	-0.000336071	-0.0114818	-9.33532e-05	217	1.64794e-14	9.3343e-08	6569.56	4.63299e+06	9.33532e-05	0.000000000000000E+000	9.33532e-05	0	108	0.00835429
2	0	0	1	1	0	3	528.475	-0.999851	-0.999714	-8.32441	-1.66488e-06	-0.0119817	-4.62557e-07	219	2.2456e-14	4.62424e-10	10120.6	0.000000000000000E+000	4.62557e-07	0.000000000000000E+000	4.62557e-07	0	109	0.00832202
2	1	0	0	0	0	4	528.64	2.54262e-05	0.000126878	0.00977346	7.92899e-07	-0.0128133	2.20154e-07	220	1.556e-14	0.000000000000000E+000	3708.76	0.000000000000000E+000	0.000000000000000E+000	2.20154e-07	2.20154e-07	0	110	1.24004e-09
2	1	0	0	0	1	4	528.8	2.54262e-05	-6.68356e-06	0.0219948	2.96857e-07	-0.0136448	8.25255e-08	222	6.15062e-15	0.000000000000000E+000	1297.56	0.000000000000000E+000	0.000000000000000E+000	8.25255e-08	8.25255e-08	0	111	1.47004e-10
2	0	0	1	0	0	3	528.965	-0.999851	-0.999847	-8.32021	-0.000749702	-0.0143935	-0.00020825	223	2.2376e-14	2.0822e-07	8096.52	1.155e+07	0.00020825	0.000000000000000E+000	0.00020825	0	111	0.00831893
2	0	0	1	0	1	3	529.125	-0.999851	-0.999878	-8.31142	-0.000416815	-0.0148906	-0.000115782	225	1.97165e-14	1.15765e-07	79500.5	7.80469e+06	0.000115782	0.000000000000000E+000	0.000115782	0	112	0.00831041
2	0	0	1	0	0	3	529.285	-0.999851	-0.999855	-8.28125	-8.44373e-05	-0.0153873	-2.34548e-05	227	1.77675e-14	2.34516e-08	0.000000000000000E+000	2.21348e+07	2.34548e-05	0.000000000000000E+000	2.34548e-05	0	113	0.00828005
2	1	0	0	0	0	4	529.45	2.54262e-05	0.000123062	0.0181756	8.87426e-07	-0.0161294	2.46283e-07	228	1.92552e-14	0.000000000000000E+000	6638.29	0.000000000000000E+000	0.000000000000000E+000	2.46283e-07	2.46283e-07	0	114	2.23673e-09
2	1	0	0	0	1	4	529.61	2.54262e-05	7.34534e-05	0.00251706	4.30415e-07	-0.0169543	1.1952e-07	230	2.42148e-15	0.000000000000000E+000	4176.05	0.000000000000000E+000	0.000000000000000E+000	1.1952e-07	1.1952e-07	0	115	1.84886e-10
2	0	0	1	0	0	3	529.775	-0.999851	-0.999893	-8.25681	-0.000825163	-0.0177787	-0.000229212	231	1.62615e-14	2.29187e-07	8840.21	1.44208e+07	0.000229212	0.000000000000000E+000	0.000229212	0	115	0.00825592
2	0	0	1	0	1	3	529.935	-0.999851	-0.999939	-8.24077	-0.000496367	-0.0182739	-0.000137879	233	1.70834e-14	1.37863e-07	104944	4.48687e+06	0.000137879	0.000000000000000E+000	0.000137879	0	116	0.00824026
2	0	0	1	0	0	3	530.095	-0.999851	-0.99995	-8.23733	-0.00016623	-0.0187667	-4.6175e-05	235	1.60972e-14	4.61719e-08	9392.41	1.45254e+07	4.6175e-05	0.000000000000000E+000	4.6175e-05	0	117	0.00823692
2	1	0	0	0	0	4	530.26	2.54262e-05	3.14768e-05	0.012065	1.02687e-06	-0.0194228	2.85606e-07	236	1.52548e-14	0.000000000000000E+000	33679.6	0.000000000000000E+000	0.000000000000000E+000	2.85606e-07	2.85606e-07	0	118	3.79767e-10
2	1	0	0	0	1	4	530.42	2.54262e-05	8.49016e-05	0.00710004	5.516e-07	-0.0202451	1.53151e-07	238	8.86039e-15	0.000000000000000E+000	6020.01	0.000000000000000E+000	0.000000000000000E+000	1.53151e-07	1.53151e-07	0	119	6.02805e-10
2	1	0	0	0	0	4	530.58	2.54262e-05	-6.0108e-05	0.0158841	5.88423e-08	-0.0210664	1.60394e-08	240	-9.36457e-16	0.000000000000000E+000	1080.81	0.000000000000000E+000	0.000000000000000E+000	1.60394e-08	1.60394e-08	0	120	9.54764e-10
2	0	0	1	0	1	3	530.745	-0.999851	-0.999828	-8.22091	-0.0005767	-0.0216419	-0.000160194	241	1.05609e-14	1.60177e-07	31385.4	1.53578e+08	0.000160194	0.000000000000000E+000	0.000160194	0	120	0.0082195
2	0	0	1	0	0	3	530.905	-0.999851	-0.999889	-8.20907	-0.000247909	-0.0221335	-6.88635e-05	243	2.66554e-14	6.8855e-08	62185.1	247.9	6.88635e-05	0.000000000000000E+000	6.88635e-05	0	121	0.00820816
2	1	0	0	0	0	4	531.07	2.54262e-05	0.000214647	0.00366281	1.12544e-06	-0.0227052	3.1251e-07	244	1.69606e-14	0.000000000000000E+000	4755.13	0.000000000000000E+000	0.000000000000000E+000	3.1251e-07	3.1251e-07	0	122	7.86209e-10
2	1	0	0	0	1	4	531.23	2.54262e-05	5.81892e-05	0.00442664	6.41238e-07	-0.0235234	1.77986e-07	246	6.61731e-15	0.000000000000000E+000	7632.27	0.000000000000000E+000	0.000000000000000E+000	1.77986e-07	1.77986e-07	0	123	2.57582e-10
2	1	0	0	0	0	0	548.786	2.54262e-05	6.20053e-05	0.0135926	0.0000000E+000	0.0000000E+000	0.000432412	248	0.000000000000000E+000	0.000000000000000E+000	0.000000000000000E+000	0.000000000000000E+000	0.000000000000000E+000	0.000432412	0.000432412	0	124	8.42814e-10
2	0	0	1	0	0	3	551.831	-0.999851	-0.999771	-11.8904	-0.000538446	0.00191641	-0.000149568	249	1.34963e-07	1.49549e-07	4.28868e+07	2.35251e+07	0.000149568	0.000000000000000E+000	0.000149568	0	124	0.0118876
2	0	0	1	0	1	3	551.991	-0.999851	-0.999801	-11.8117	-6.14538e-05	0.00120718	-1.70705e-05	251	2.60798e-14	1.70672e-08	11281.4	383280	1.70705e-05	0.000000000000000E+000	1.70705e-05	0	125	0.0118093
2	1	0	0	0	1	4	552.156	2.54262e-05	8.49015e-05	0.0189395	8.99283e-07	9.18037e-05	2.49802e-07	252	2.12912e-14	0.000000000000000E+000	4620.77	0.000000000000000E+000	0.000000000000000E+000	2.49802e-07	2.49802e-07	0	126	1.60799e-09
2	1	0	0	0	0	4	552.316	2.54262e-05	4.29251e-05	0.0185575	3.76048e-07	-0.00108026	1.04483e-07	254	5.75843e-15	0.000000000000000E+000	8213.96	0.000000000000000E+000	0.000000000000000E+000	1.04483e-07	1.04483e-07	0	127	7.96584e-10
2	0	0	1	0	1	3	552.481	-0.999851	-0.99979	-11.6902	-0.001114	-0.00219334	-0.000309446	255	2.57981e-14	3.09402e-07	28279.8	1.12319e+07	0.000309446	0.000000000000000E+000	0.000309446	0	127	0.0116878
2	0	0	1	0	0	3	552.641	-0.999851	-0.999847	-11.6585	-0.000644142	-0.00289233	-0.000178928	257	2.22186e-14	1.78899e-07	6558.37	7.34165e+06	0.000178928	0.000000000000000E+000	0.000178928	0	128	0.0116568
2	0	0	1	0	1	3	552.801	-0.999851	-0.99992	-11.636	-0.000176972	-0.00359028	-4.9159e-05	259	3.31108e-14	4.91516e-08	40886.6	1.13152e+06	4.9159e-05	0.000000000000000E+000	4.9159e-05	0	129	0.0116351
2	1	0	0	0	1	4	552.966	2.54262e-05	0.000161222	0.0105373	9.91289e-07	-0.0045755	2.75387e-07	260	2.29099e-14	0.000000000000000E+000	10391.8	0.000000000000000E+000	0.000000000000000E+000	2.75387e-07	2.75387e-07	0	130	1.69885e-09
2	1	0	0	0	0	4	553.126	2.54262e-05	0.000126878	0.0113011	4.99448e-07	-0.00573331	1.38793e-07	262	1.03878e-14	0.000000000000000E+000	9352.54	0.000000000000000E+000	0.000000000000000E+000	1.38793e-07	1.38793e-07	0	131	1.43386e-09
2	1	0	0	1	1	4	553.286	2.54262e-05	-4.10278e-05	0.0216129	4.32258e-09	-0.00688487	1.2935e-09	264	-5.30696e-17	0.000000000000000E+000	0.000000000000000E+000	0.000000000000000E+000	0.000000000000000E+000	1.2935e-09	1.2935e-09	0	132	8.8673e-10
2	0	0	1	0	0	3	553.451	-0.999851	-0.999863	-11.4088	-0.000747311	-0.00763096	-0.000207586	265	2.41419e-14	2.07556e-07	15961.2	3.99548e+06	0.000207586	0.000000000000000E+000	0.000207586	0	132	0.0114072
2	0	0	1	0	1	3	553.611	-0.999851	-0.999859	-11.3205	-0.000285297	-0.0083115	-7.92491e-05	267	1.908e-14	7.92416e-08	21151.4	8.30987e+06	7.92491e-05	0.000000000000000E+000	7.92491e-05	0	133	0.0113189
2	1	0	0	0	1	4	553.776	2.54262e-05	0.000119246	0.00786389	1.07909e-06	-0.0091509	2.99575e-07	268	1.63856e-14	0.000000000000000E+000	8074.73	0.000000000000000E+000	0.000000000000000E+000	2.99575e-07	2.99575e-07	0	134	9.37737e-10
2	1	0	0	0	0	4	553.936	2.54262e-05	3.1477e-05	0.0193214	6.13299e-07	-0.010269	1.70484e-07	270	6.61316e-15	0.000000000000000E+000	6701.33	0.000000000000000E+000	0.000000000000000E+000	1.70484e-07	1.70484e-07	0	135	6.08179e-10
2	1	0	0	0	1	4	554.096	2.54262e-05	0.000142142	0.00557239	1.28486e-07	-0.0113616	3.57007e-08	272	3.65891e-15	0.000000000000000E+000	910.259	0.000000000000000E+000	0.000000000000000E+000	3.57007e-08	3.57007e-08	0	136	7.92071e-10
2	0	0	1	0	0	3	554.261	-0.999851	-0.999798	-10.8871	-0.00082074	-0.0121812	-0.000227983	273	3.39235e-14	2.27955e-07	7350.03	6.7235e+06	0.000227983	0.000000000000000E+000	0.000227983	0	136	0.0108849
2	0	0	1	0	1	3	554.421	-0.999851	-0.999996	-10.5777	-0.00037941	-0.0128287	-0.000105392	275	2.23936e-14	1.05383e-07	24292.8	2.68697e+06	0.000105392	0.000000000000000E+000	0.000105392	0	137	0.0105777
2	1	0	0	0	1	4	554.585	2.54262e-05	5.0557e-05	0.00939155	1.19916e-06	-0.0134911	3.32948e-07	276	1.64637e-14	0.000000000000000E+000	7660.94	0.000000000000000E+000	0.000000000000000E+000	3.32948e-07	3.32948e-07	0	138	4.74809e-10
2	1	0	0	0	0	4	554.746	2.54262e-05	-5.62919e-05	0.0151203	6.44122e-07	-0.0144609	1.79021e-07	278	1.3202e-14	0.000000000000000E+000	5629.53	0.000000000000000E+000	0.000000000000000E+000	1.79021e-07	1.79021e-07	0	139	8.5115e-10
2	1	0	0	0	1	4	554.906	2.54262e-05	3.91091e-05	0.0155022	2.24846e-07	-0.0153782	6.23469e-08	280	6.99844e-16	0.000000000000000E+000	19605.5	0.000000000000000E+000	0.000000000000000E+000	6.23469e-08	6.23469e-08	0	140	6.06277e-10
2	0	0	1	0	0	3	555.071	-0.999851	-0.999824	-8.75674	-0.000751885	-0.0161291	-0.000208857	281	1.84211e-14	2.08834e-07	18944.7	6.57008e+07	0.000208857	0.000000000000000E+000	0.000208857	0	140	0.0087552
2	0	0	1	0	1	3	555.231	-0.999851	-0.999863	-8.55088	-0.000390027	-0.0166472	-0.000108341	283	1.75766e-14	1.08332e-07	10668.7	9.29488e+06	0.000108341	0.000000000000000E+000	0.000108341	0	141	0.00854971
2	0	0	1	0	0	3	555.391	-0.999851	-0.999767	-8.43784	-4.38372e-05	-0.0171565	-1.2177e-05	285	1.82114e-14	1.21742e-08	11753.7	1.04322e+06	1.2177e-05	0.000000000000000E+000	1.2177e-05	0	142	0.00843587
2	1	0	0	0	0	4	555.556	2.54262e-05	-3.72119e-05	0.00671813	7.8784e-07	-0.0179487	2.18343e-07	286	7.3032e-15	0.000000000000000E+000	6866.06	0.000000000000000E+000	0.000000000000000E+000	2.18343e-07	2.18343e-07	0	143	2.49994e-10
2	1	0	0	0	1	4	555.716	2.54262e-05	4.67412e-05	0.0200852	3.45648e-07	-0.018764	9.57193e-08	288	3.05836e-15	0.000000000000000E+000	3344.45	0.000000000000000E+000	0.000000000000000E+000	9.57193e-08	9.57193e-08	0	144	9.38807e-10
2	0	0	1	0	0	3	555.881	-0.999851	-0.999893	-7.76261	-0.000750627	-0.0195138	-0.000208508	289	2.04277e-14	2.0848e-07	5636.28	6.55567e+06	0.000208508	0.000000000000000E+000	0.000208508	0	144	0.00776178
2	0	0	1	0	1	3	556.041	-0.999851	-0.999733	-7.67018	-0.000424465	-0.0199744	-0.000117907	291	1.33928e-14	1.1789e-07	15105.7	4.63328e+06	0.000117907	0.000000000000000E+000	0.000117907	0	145	0.00766813
2	0	0	1	0	0	3	556.201	-0.999851	-0.999798	-7.62894	-0.000115774	-0.0204316	-3.21596e-05	293	2.46229e-14	3.2157e-08	288477	919250	3.21596e-05	0.000000000000000E+000	3.21596e-05	0	146	0.00762739
2	1	0	0	0	0	4	556.366	2.54262e-05	1.62128e-05	0.0124469	8.92754e-07	-0.0210752	2.47835e-07	294	1.94522e-14	0.000000000000000E+000	116902	0.000000000000000E+000	0.000000000000000E+000	2.47835e-07	2.47835e-07	0	147	2.01798e-10
2	1	0	0	0	1	4	556.526	2.54262e-05	4.76468e-06	0.00671813	4.41855e-07	-0.0218301	1.22624e-07	296	7.60137e-15	0.000000000000000E+000	23136.4	0.000000000000000E+000	0.000000000000000E+000	1.22624e-07	1.22624e-07	0	148	3.20097e-11
2	1	0	0	1	0	4	556.686	2.54262e-05	-6.77401e-05	0.0132107	2.64214e-09	-0.0225822	1.0348e-09	298	-7.00977e-17	0.000000000000000E+000	0.000000000000000E+000	0.000000000000000E+000	0.000000000000000E+000	1.0348e-09	1.0348e-09	0	149	8.94896e-10
2	0	0	1	0	1	3	556.851	-0.999851	-0.999893	-7.47159	-0.000488846	-0.0230699	-0.000135791	299	2.5154e-14	1.35776e-07	7114.2	1.42387e+07	0.000135791	0.000000000000000E+000	0.000135791	0	149	0.00747079
2	0	0	1	0	0	3	557.011	-0.999851	-0.999885	-7.46013	-0.000188222	-0.0235174	-5.22839e-05	301	1.26687e-14	5.22787e-08	5440.2	4.49195e+06	5.22839e-05	0.000000000000000E+000	5.22839e-05	0	150	0.00745927
2	1	0	0	0	0	4	557.176	2.54262e-05	-1.43157e-05	0.012065	1.00546e-06	-0.0240749	2.79397e-07	302	1.30909e-14	0.000000000000000E+000	6936.29	0.000000000000000E+000	0.000000000000000E+000	2.79397e-07	2.79397e-07	0	151	1.72718e-10
2	1	0	0	0	1	4	557.336	2.54262e-05	7.34534e-05	0.00557237	5.54866e-07	-0.0248185	1.54186e-07	304	1.20382e-14	0.000000000000000E+000	14545.7	0.000000000000000E+000	0.000000000000000E+000	1.54186e-07	1.54186e-07	0	152	4.0931e-10
2	1	0	0	0	0	4	557.496	2.54262e-05	3.5293e-05	0.00633621	9.42661e-08	-0.0255603	2.63875e-08	306	1.33013e-15	0.000000000000000E+000	2765.95	0.000000000000000E+000	0.000000000000000E+000	2.63875e-08	2.63875e-08	0	153	2.23624e-10
2	0	0	1	0	1	3	557.661	-0.999851	-0.999878	-7.41239	-0.000557265	-0.0261166	-0.000154796	307	1.74231e-14	1.54778e-07	98436.4	9.12131e+06	0.000154796	0.000000000000000E+000	0.000154796	0	153	0.00741148
2	1	0	0	0	0	5	557.793	2.54262e-05	-0.000121165	0.0139746	7.86183e-08	-0.0262992	3.26998e-07	308	2.10574e-14	0.000000000000000E+000	7524.02	0.000000000000000E+000	0.000000000000000E+000	3.26998e-07	3.26998e-07	0	154	1.69322e-09
2	1	0	0	0	0	2	577.596	2.54262e-05	9.63497e-05	0.00824579	3.49495e-06	0.00234147	0.00065041	310	1.29245e-07	0.000000000000000E+000	3.40883e+07	0.000000000000000E+000	0.000000000000000E+000	0.00065041	0.00065041	0	155	7.94479e-10
2	1	0	0	0	0	4	578.421	2.54262e-05	2.00289e-05	0.0155022	3.02968e-07	0.00120492	8.41747e-08	312	6.00066e-15	0.000000000000000E+000	6108.41	0.000000000000000E+000	0.000000000000000E+000	8.41747e-08	8.41747e-08	0	156	3.10492e-10
2	0	0	1	0	1	3	578.586	-0.999851	-0.999882	-11.4573	-0.00103464	0.00017119	-0.000287401	313	2.60995e-14	2.87359e-07	18774.3	9.68122e+06	0.000287401	0.000000000000000E+000	0.000287401	0	156	0.0114559
2	0	0	1	0	0	3	578.746	-0.999851	-0.999912	-11.4332	-0.000574203	-0.000514019	-0.000159501	315	1.96095e-14	1.59485e-07	15078.6	5.37286e+06	0.000159501	0.000000000000000E+000	0.000159501	0	157	0.0114322
2	0	0	1	0	1	3	578.906	-0.999851	-0.999973	-11.4259	-0.000116605	-0.00119862	-3.23903e-05	317	1.5635e-14	3.23888e-08	13945.8	899040	3.23903e-05	0.000000000000000E+000	3.23903e-05	0	158	0.0114256
2	1	0	0	0	1	4	579.071	2.54262e-05	0.000111614	0.0036628	8.81773e-07	-0.00222407	2.44925e-07	318	1.78615e-14	0.000000000000000E+000	19254.9	0.000000000000000E+000	0.000000000000000E+000	2.44925e-07	2.44925e-07	0	159	4.08819e-10
2	1	0	0	0	0	4	579.231	2.54262e-05	0.000126878	0.00671813	3.95585e-07	-0.00336594	1.09883e-07	320	9.40921e-15	0.000000000000000E+000	3239.44	0.000000000000000E+000	0.000000000000000E+000	1.09883e-07	1.09883e-07	0	160	8.52383e-10
2	0	0	1	0	1	3	579.396	-0.999851	-0.999863	-11.4198	-0.00114201	-0.00450722	-0.000317225	321	2.36285e-14	3.17192e-07	48983.9	0.000000000000000E+000	0.000317225	0.000000000000000E+000	0.000317225	0	160	0.0114183
2	0	0	1	0	0	3	579.556	-0.999851	-0.99984	-11.4206	-0.000687434	-0.00519352	-0.000190954	323	6.83166e-15	1.90932e-07	49441.2	1.12519e+07	0.000190954	0.000000000000000E+000	0.000190954	0	161	0.0114188
2	0	0	1	0	1	3	579.716	-0.999851	-0.999878	-11.4156	-0.000230698	-0.00587767	-6.40828e-05	325	1.45491e-14	6.40784e-08	17184.3	1.20952e+07	6.40828e-05	0.000000000000000E+000	6.40828e-05	0	162	0.0114142
2	1	0	0	0	1	4	579.881	2.54262e-05	-0.000102084	0.0139745	9.84167e-07	-0.00678789	2.73317e-07	326	1.09212e-14	0.000000000000000E+000	9208.71	0.000000000000000E+000	0.000000000000000E+000	2.73317e-07	2.73317e-07	0	163	1.42658e-09
2	1	0	0	0	0	4	580.041	2.54262e-05	-1.04996e-05	0.0155022	4.94465e-07	-0.0079284	1.3737e-07	328	6.85619e-15	0.000000000000000E+000	12959.3	0.000000000000000E+000	0.000000000000000E+000	1.3737e-07	1.3737e-07	0	164	1.62767e-10
2	1	0	0	0	1	4	580.201	2.54262e-05	3.91089e-05	0.0155022	6.37308e-08	-0.00906803	1.75916e-08	330	7.29454e-16	0.000000000000000E+000	1185.41	0.000000000000000E+000	0.000000000000000E+000	1.75916e-08	1.75916e-08	0	165	6.06275e-10
2	0	0	1	0	0	3	580.366	-0.999851	-0.999927	-11.3866	-0.00079984	-0.00986672	-0.000222178	331	2.49559e-14	2.2215e-07	21281.6	7.48833e+06	0.000222178	0.000000000000000E+000	0.000222178	0	165	0.0113858
2	0	0	1	0	1	3	580.526	-0.999851	-0.999927	-11.3855	-0.000343785	-0.0105486	-9.5496e-05	333	2.21374e-14	9.54785e-08	6625.82	3.3359e+06	9.5496e-05	0.000000000000000E+000	9.5496e-05	0	166	0.0113846
2	1	0	0	0	1	4	580.691	2.54262e-05	0.000119246	0.012065	1.15905e-06	-0.0113418	3.21824e-07	334	1.87928e-14	0.000000000000000E+000	12650.2	0.000000000000000E+000	0.000000000000000E+000	3.21824e-07	3.21824e-07	0	167	1.4387e-09
2	1	0	0	0	0	4	580.851	2.54262e-05	0.000123062	0.00519048	6.83096e-07	-0.0124781	1.89628e-07	336	1.30255e-14	0.000000000000000E+000	6625.63	0.000000000000000E+000	0.000000000000000E+000	1.89628e-07	1.89628e-07	0	168	6.3875e-10
2	1	0	0	0	1	4	581.011	2.54262e-05	-2.86743e-06	0.021231	1.76971e-07	-0.0136075	4.91531e-08	338	1.29348e-15	0.000000000000000E+000	7728.42	0.000000000000000E+000	0.000000000000000E+000	4.91531e-08	4.91531e-08	0	169	6.08783e-11
2	0	0	1	0	0	3	581.176	-0.999851	-0.999809	-11.1139	-0.00089673	-0.0145032	-0.000249092	339	2.25673e-14	2.49057e-07	0.000000000000000E+000	2.61191e+07	0.000249092	0.000000000000000E+000	0.000249092	0	169	0.0111118
2	0	0	1	0	1	3	581.336	-0.999851	-0.999943	-11.0834	-0.000446048	-0.0151679	-0.000123902	341	1.46542e-14	1.23883e-07	18548.1	3.34082e+06	0.000123902	0.000000000000000E+000	0.000123902	0	170	0.0110827
2	0	0	1	1	0	3	581.496	-0.999851	-0.999863	-11.0864	-2.21729e-06	-0.0158314	-6.15708e-07	343	1.60655e-14	6.15623e-10	5401.21	0.000000000000000E+000	6.15708e-07	0.000000000000000E+000	6.15708e-07	0	171	0.0110849
2	1	0	0	0	0	4	581.661	2.54262e-05	4.67411e-05	0.0177937	8.60193e-07	-0.0169339	2.39039e-07	344	9.29133e-15	0.000000000000000E+000	16107.6	0.000000000000000E+000	0.000000000000000E+000	2.39039e-07	2.39039e-07	0	172	8.31697e-10
2	1	0	0	0	1	4	581.821	2.54262e-05	0.000119246	0.00175322	3.02127e-07	-0.0180338	8.43364e-08	346	3.50958e-15	0.000000000000000E+000	1371.76	0.000000000000000E+000	0.000000000000000E+000	8.43364e-08	8.43364e-08	0	173	2.09065e-10
2	0	0	1	0	0	3	581.986	-0.999851	-0.999817	-10.5258	-0.000982429	-0.0190152	-0.000272897	347	2.48383e-14	2.72864e-07	6853.45	0.000000000000000E+000	0.000272897	0.000000000000000E+000	0.000272897	0	173	0.0105238
2	0	0	1	0	1	3	582.146	-0.999851	-0.999893	-10.3978	-0.000519167	-0.0196361	-0.000144213	349	2.24148e-14	1.44192e-07	9914.73	4.001e+06	0.000144213	0.000000000000000E+000	0.000144213	0	174	0.0103967
2	0	0	1	0	0	3	582.306	-0.999851	-0.99976	-10.2401	-0.000103188	-0.0202448	-2.86635e-05	351	2.39045e-14	2.86577e-08	12465.6	2.45563e+06	2.86635e-05	0.000000000000000E+000	2.86635e-05	0	175	0.0102376
2	1	0	0	0	0	4	582.471	2.54262e-05	2.00288e-05	0.0116831	8.54657e-07	-0.0210592	2.3697e-07	352	1.634e-14	0.000000000000000E+000	7211.42	0.000000000000000E+000	0.000000000000000E+000	2.3697e-07	2.3697e-07	0	176	2.33997e-10
2	1	0	0	0	1	4	582.631	2.54262e-05	3.91091e-05	0.0227586	4.09868e-07	-0.0217949	1.13828e-07	354	-3.41828e-17	0.000000000000000E+000	5651.8	0.000000000000000E+000	0.000000000000000E+000	1.13828e-07	1.13828e-07	0	177	8.90069e-10
2	0	0	1	0	0	3	582.796	-0.999851	-0.999775	-9.13063	-0.000737226	-0.0225313	-0.000204785	355	9.88817e-15	2.04762e-07	17686.8	6.44198e+06	0.000204785	0.000000000000000E+000	0.000204785	0	177	0.00912858
2	0	0	1	0	1	3	582.956	-0.999851	-0.999836	-7.41506	-0.000463707	-0.0229939	-0.000128808	357	2.37792e-14	1.28792e-07	5838.54	1.51651e+07	0.000128808	0.000000000000000E+000	0.000128808	0	178	0.00741385
2	0	0	1	0	0	3	583.116	-0.999851	-0.999893	-7.35625	-0.00014894	-0.0234357	-4.13725e-05	359	1.16603e-14	4.13669e-08	6785.91	1.39365e+06	4.13725e-05	0.000000000000000E+000	4.13725e-05	0	179	0.00735546
2	1	0	0	0	0	4	583.281	2.54262e-05	2.76609e-05	0.00595431	9.07708e-07	-0.0240203	2.52492e-07	360	1.72867e-14	0.000000000000000E+000	34028.2	0.000000000000000E+000	0.000000000000000E+000	2.52492e-07	2.52492e-07	0	180	1.64701e-10
2	1	0	0	0	1	4	583.441	2.54262e-05	-5.62919e-05	0.0109192	4.64141e-07	-0.0247527	1.28833e-07	362	7.40192e-15	0.000000000000000E+000	8681.39	0.000000000000000E+000	0.000000000000000E+000	1.28833e-07	1.28833e-07	0	181	6.14663e-10
2	1	0	0	0	0	4	583.601	2.54262e-05	0.000168854	0.0109192	5.87659e-08	-0.0254817	1.65568e-08	364	2.74041e-15	0.000000000000000E+000	557.839	0.000000000000000E+000	0.000000000000000E+000	1.65568e-08	1.65568e-08	0	182	1.84376e-09
2	0	0	1	0	1	3	583.766	-0.999851	-0.999863	-7.25924	-0.000510254	-0.0259909	-0.000141737	365	1.29817e-14	1.41724e-07	45800.8	5.81566e+06	0.000141737	0.000000000000000E+000	0.000141737	0	182	0.00725824
2	0	0	1	0	0	3	583.926	-0.999851	-0.999844	-7.23633	-0.000218661	-0.0264247	-6.07393e-05	367	2.72445e-14	6.0732e-08	6182.72	3.81741e+06	6.07393e-05	0.000000000000000E+000	6.07393e-05	0	183	0.00723519
2	1	0	0	0	0	4	584.091	2.54262e-05	-8.68203e-05	0.0147384	9.95054e-07	-0.0269279	2.76292e-07	368	1.46201e-14	0.000000000000000E+000	5319.39	0.000000000000000E+000	0.000000000000000E+000	2.76292e-07	2.76292e-07	0	184	1.27959e-09
2	1	0	0	0	1	4	584.251	2.54262e-05	-1.43155e-05	0.016266	6.46585e-07	-0.0276475	1.79538e-07	370	3.42021e-15	0.000000000000000E+000	56458.1	0.000000000000000E+000	0.000000000000000E+000	1.79538e-07	1.79538e-07	0	185	2.32857e-10
2	1	0	0	0	0	7	585.406	2.54262e-05	-1.04995e-05	0.0147384	1.0519e-06	-0.0263544	0.000359388	370	7.1763e-08	0.000000000000000E+000	1.6952e+08	0.000000000000000E+000	0.000000000000000E+000	0.000359388	0.000359388	0	185	1.54746e-10