File: data_examples/SRDP_200ms.mpt
EC-Lab ASCII FILE
Nb header lines : 66

Chronoamperometry / Chronocoulometry

Run on channel : 1 (SN 3020)
User :
Electrode connection : standard
Ewe ctrl range : min = -10.00 V, max = 10.00 V
Ewe,I filtering : <None>
Channel : Grounded
Acquisition started on : 04/06/2022 13:48:24
Saved on :
	File : SRDP_2_1_01_srdp5x_cond1p5V_30xpulse-minus1V-read-plus200mV_t-100ms-dt-10-50-100-200-500ms-GISYA-EWE-materials_13_CA_C01.mpr
	Directory : C:\Users\AGH\Desktop\AnJ\2022-04-05-06_ITO_Ni[Me4Benzo]_Cu\
	Host : 192.109.209.128
Device : SP-300 (SN 0552)
Address : USB
EC-Lab for windows v11.20 (software)
Internet server v11.20 (firmware)
Command interpretor v11.20 (firmware)
Electrode material :
Initial state :
Electrolyte :
Comments :
Cable : standard
Electrode surface area : 0.001 cm²
Characteristic mass : 0.001 g
Equivalent Weight : 0.000 g/eq.
Density : 0.000 g/cm3
Ns                  0                   1                   2                   3                   4                   5                   6                   7
Ei (V)              0.000               0.200               0.000               -1.000              0.000               0.000               0.200               0.000
vs.                 Ref                 Ref                 Ref                 Ref                 Ref                 Ref                 Ref                 Ref
ti (h:m:s)          0:00:1.0000         0:00:1.0000         0:00:1.0000         0:00:0.1000         0:00:0.2000         0:00:0.0100         0:00:1.0000         0:00:0.1000
Imax                pass                pass                pass                pass                pass                pass                pass                pass
unit Imax           mA                  mA                  mA                  mA                  mA                  mA                  mA                  mA
Imin                pass                pass                pass                pass                pass                pass                pass                pass
unit Imin           mA                  mA                  mA                  mA                  mA                  mA                  mA                  mA
dQM                 0.000               0.000               0.000               0.000               0.000               0.000               0.000               0.000
unit dQM            mA.h                mA.h                mA.h                mA.h                mA.h                mA.h                mA.h                mA.h
record              I                   I                   I                   I                   I                   I                   I                   I
dI                  0.000               0.000               0.000               0.000               0.000               0.000               0.000               0.000
unit dI             µA                  µA                  µA                  µA                  µA                  µA                  µA                  µA
dQ                  0.000               0.000               0.000               0.000               0.000               0.000               0.000               0.000
unit dQ             mA.h                mA.h                mA.h                mA.h                mA.h                mA.h                mA.h                mA.h
dt (s)              0.5000              0.1000              0.1000              0.0050              0.0100              0.0010              0.1000              0.1000
dta (s)             0.1000              0.1000              0.1000              0.1000              0.1000              0.1000              0.1000              0.1000
E range min (V)     -10.000             -10.000             -10.000             -10.000             -10.000             -10.000             -10.000             -10.000
E range max (V)     10.000              10.000              10.000              10.000              10.000              10.000              10.000              10.000
I Range             100 mA              100 mA              100 mA              100 mA              100 mA              100 mA              100 mA              100 mA
I Range min         Unset               Unset               Unset               Unset               Unset               Unset               Unset               Unset
I Range max         Unset               Unset               Unset               Unset               Unset               Unset               Unset               Unset
I Range init        Unset               Unset               Unset               Unset               Unset               Unset               Unset               Unset
Bandwidth           5                   5                   5                   5                   5                   5                   5                   5
goto Ns'            0                   0                   0                   0                   3                   0                   0                   0
nc cycles           0                   0                   0                   0                   29                  0                   0                   0

Number of loops : 6
Loop 0 from point number 0 to 1308
Loop 1 from point number 1309 to 2617
Loop 2 from point number 2618 to 3926
Loop 3 from point number 3927 to 5235
Loop 4 from point number 5236 to 6544
Loop 5 from point number 6545 to 7853

mode	ox/red	error	control changes	Ns changes	counter inc.	Ns	time/s	control/V	Ewe/V	I/mA	dQ/C	(Q-Qo)/C	Q charge/discharge/mA.h	half cycle	Energy charge/W.h	Energy discharge/W.h	Capacitance charge/µF	Capacitance discharge/µF	Q discharge/mA.h	Q charge/mA.h	Capacity/mA.h	Efficiency/%	cycle number	P/W
2	1	0	0	0	0	0	601.808	2.54262e-05	0.000126878	0.00480855	0.0000000E+000	0.0000000E+000	0.000000000000000E+000	0	0.000000000000000E+000	0.000000000000000E+000	0.000000000000000E+000	0.000000000000000E+000	0.000000000000000E+000	0.000000000000000E+000	0.000000000000000E+000	0	0.000000000000000E+000	6.10099e-10
2	0	0	1	0	0	3	604.853	-0.999851	-0.999966	-7.1439	-0.000325401	0.0009745	-9.03892e-05	1	7.10378e-08	9.03792e-08	1.89245e+07	2.8434e+06	9.03892e-05	0.000000000000000E+000	9.03892e-05	0	0.000000000000000E+000	0.00714366
2	0	0	1	0	1	3	605.113	-0.999851	-0.999905	-7.17407	-3.7299e-05	0.000546801	-1.03608e-05	3	3.68304e-14	1.03598e-08	27784.1	3.25924e+06	1.03608e-05	0.000000000000000E+000	1.03608e-05	0	1	0.00717339
2	1	0	0	0	1	4	605.348	2.54262e-05	5.43732e-05	0.0132107	1.42776e-06	-0.000127807	3.96596e-07	4	1.59383e-14	0.000000000000000E+000	12471.5	0.000000000000000E+000	0.000000000000000E+000	3.96596e-07	3.96596e-07	0	2	7.18308e-10
2	1	0	0	0	0	4	605.568	2.54262e-05	0.000119246	0.00404471	6.06847e-07	-0.000836847	1.68576e-07	6	1.1456e-17	0.000000000000000E+000	2338.71	0.000000000000000E+000	0.000000000000000E+000	1.68576e-07	1.68576e-07	0	3	4.82316e-10
2	0	0	1	0	1	3	605.803	-0.999851	-0.999851	-7.07821	-0.000674337	-0.00150971	-0.000187316	7	1.13389e-14	1.87297e-07	9247.97	1.26267e+07	0.000187316	0.000000000000000E+000	0.000187316	0	3	0.00707716
2	0	0	1	0	0	3	606.063	-0.999851	-0.999882	-7.04804	-0.000389832	-0.00193142	-0.000108287	9	2.30499e-14	1.08277e-07	18251.2	1.02192e+07	0.000108287	0.000000000000000E+000	0.000108287	0	4	0.00704721
2	0	0	1	0	1	3	606.323	-0.999851	-0.999805	-7.03849	-0.000107047	-0.00235197	-2.97353e-05	11	4.27628e-14	2.97294e-08	61224	4.67695e+06	2.97353e-05	0.000000000000000E+000	2.97353e-05	0	5	0.00703712
2	1	0	0	0	1	4	606.568	2.54262e-05	2.38449e-05	0.0124469	1.69243e-06	-0.00294721	4.70059e-07	12	1.93619e-14	0.000000000000000E+000	221727	0.000000000000000E+000	0.000000000000000E+000	4.70059e-07	4.70059e-07	0	6	2.96794e-10
2	1	0	0	0	0	4	606.788	2.54262e-05	9.48552e-07	0.012065	7.97657e-07	-0.00364898	2.21577e-07	14	-1.53003e-15	0.000000000000000E+000	13064.5	0.000000000000000E+000	0.000000000000000E+000	2.21577e-07	2.21577e-07	0	7	1.14442e-11
2	1	0	0	1	1	4	607.008	2.54262e-05	9.63495e-05	0.00519046	1.03809e-09	-0.00434988	2.58701e-10	16	2.49257e-17	0.000000000000000E+000	0.000000000000000E+000	0.000000000000000E+000	0.000000000000000E+000	2.58701e-10	2.58701e-10	0	8	5.00099e-10
2	0	0	1	0	0	3	607.273	-0.999851	-0.999958	-7.01443	-0.000457229	-0.00480496	-0.000127008	17	2.93888e-14	1.26994e-07	187516	1.8152e+06	0.000127008	0.000000000000000E+000	0.000127008	0	8	0.00701414
2	0	0	1	0	1	3	607.533	-0.999851	-1.00012	-6.97204	-0.000175424	-0.00522152	-4.87289e-05	19	2.51125e-14	4.87243e-08	12848.9	450639	4.87289e-05	0.000000000000000E+000	4.87289e-05	0	9	0.00697289
2	1	0	0	0	1	4	607.788	2.54262e-05	-0.000121165	0.0193214	1.89981e-06	-0.0057394	5.27749e-07	20	1.3515e-14	0.000000000000000E+000	29286.6	0.000000000000000E+000	0.000000000000000E+000	5.27749e-07	5.27749e-07	0	10	2.34107e-09
2	1	0	0	0	0	4	608.008	2.54262e-05	0.000107798	0.0101554	1.0647e-06	-0.0064328	2.95695e-07	22	1.58149e-14	-1.83861e-17	10336.2	0.000000000000000E+000	0.000000000000000E+000	2.95695e-07	2.95695e-07	0	11	1.09473e-09
2	1	0	0	0	1	4	608.228	2.54262e-05	-1.04995e-05	0.00519046	2.15909e-07	-0.00712554	6.00186e-08	24	-2.37111e-15	0.000000000000000E+000	6291.18	0.000000000000000E+000	0.000000000000000E+000	6.00186e-08	6.00186e-08	0	12	5.44975e-11
2	0	0	1	0	0	3	608.483	-0.999851	-0.999931	-6.94072	-0.000521119	-0.00764468	-0.000144755	25	7.46385e-15	1.44739e-07	287190	5.46433e+06	0.000144755	0.000000000000000E+000	0.000144755	0	12	0.00694025
2	0	0	1	0	1	3	608.743	-0.999851	-0.999912	-7.05721	-0.000251895	-0.00806747	-6.9971e-05	27	-9.91604e-15	6.99645e-08	28542.7	1.73842e+06	6.9971e-05	0.000000000000000E+000	6.9971e-05	0	13	0.00705659
2	1	0	0	0	1	4	609.007	2.54262e-05	2.38449e-05	0.00862771	2.14244e-06	-0.0085217	5.95012e-07	28	2.34174e-14	0.000000000000000E+000	28066.3	0.000000000000000E+000	0.000000000000000E+000	5.95012e-07	5.95012e-07	0	14	2.05727e-10
2	1	0	0	0	0	4	609.228	2.54262e-05	-6.68356e-06	0.0139746	1.27712e-06	-0.00922231	3.54937e-07	30	1.13895e-14	0.000000000000000E+000	15944.9	0.000000000000000E+000	0.000000000000000E+000	3.54937e-07	3.54937e-07	0	15	9.33997e-11
2	1	0	0	0	1	4	609.448	2.54262e-05	3.91089e-05	0.0128288	4.06184e-07	-0.00992249	1.12794e-07	32	9.85276e-15	0.000000000000000E+000	3941.03	0.000000000000000E+000	0.000000000000000E+000	1.12794e-07	1.12794e-07	0	16	5.0172e-10
2	0	0	1	0	0	3	609.693	-0.999851	-0.999874	-6.99839	-0.000596492	-0.0105173	-0.000165692	33	1.30169e-14	1.65671e-07	36884.8	1.53961e+08	0.000165692	0.000000000000000E+000	0.000165692	0	16	0.00699751
2	0	0	1	0	1	3	609.953	-0.999851	-0.999859	-6.98694	-0.00031586	-0.0109346	-8.77389e-05	35	3.38869e-14	8.77245e-08	136913	5.91434e+06	8.77389e-05	0.000000000000000E+000	8.77389e-05	0	17	0.00698595
2	0	0	1	0	0	3	610.213	-0.999851	-0.999836	-6.96096	-3.62245e-05	-0.0113514	-1.00624e-05	37	4.87826e-14	1.00608e-08	70501	1.18933e+06	1.00624e-05	0.000000000000000E+000	1.00624e-05	0	18	0.00695982
2	1	0	0	0	0	4	610.448	2.54262e-05	5.05572e-05	0.0132107	1.46518e-06	-0.0120117	4.06936e-07	38	2.06268e-14	0.000000000000000E+000	17449.9	0.000000000000000E+000	0.000000000000000E+000	4.06936e-07	4.06936e-07	0	19	6.67897e-10
2	1	0	0	0	1	4	610.668	2.54262e-05	6.58214e-05	0.0124469	5.81182e-07	-0.0127069	1.61429e-07	40	1.04488e-14	0.000000000000000E+000	8015.26	0.000000000000000E+000	0.000000000000000E+000	1.61429e-07	1.61429e-07	0	20	8.19271e-10
2	0	0	1	0	0	3	610.903	-0.999851	-1.00001	-6.95485	-0.000662042	-0.0133675	-0.000183901	41	2.27858e-14	1.83879e-07	87209.1	3.47101e+06	0.000183901	0.000000000000000E+000	0.000183901	0	20	0.00695493
2	0	0	1	0	1	3	611.163	-0.999851	-0.999912	-6.95065	-0.000383802	-0.0137825	-0.000106612	43	1.85959e-14	1.06599e-07	91438.8	1.00454e+07	0.000106612	0.000000000000000E+000	0.000106612	0	21	0.00695004
2	0	0	1	0	0	3	611.423	-0.999851	-1.00001	-6.94951	-0.00010572	-0.0141977	-2.93667e-05	45	3.40312e-14	2.93645e-08	15989.1	1.06592e+06	2.93667e-05	0.000000000000000E+000	2.93667e-05	0	22	0.00694956
2	1	0	0	0	0	4	611.668	2.54262e-05	0.000195567	0.00480855	1.65401e-06	-0.0147863	4.59452e-07	46	2.33708e-14	0.000000000000000E+000	13982	0.000000000000000E+000	0.000000000000000E+000	4.59452e-07	4.59452e-07	0	23	9.40392e-10
2	1	0	0	0	1	4	611.888	2.54262e-05	-8.68203e-05	0.0181756	8.68312e-07	-0.0154808	2.41109e-07	48	7.48572e-15	0.000000000000000E+000	6892.69	0.000000000000000E+000	0.000000000000000E+000	2.41109e-07	2.41109e-07	0	24	1.57801e-09
2	1	0	0	1	0	4	612.108	2.54262e-05	-0.000228014	0.025814	5.16279e-09	-0.0161804	1.5522e-09	50	-3.53924e-16	0.000000000000000E+000	0.000000000000000E+000	0.000000000000000E+000	0.000000000000000E+000	1.5522e-09	1.5522e-09	0	25	5.88594e-09
2	0	0	1	0	1	3	612.373	-0.999851	-0.999924	-7.02474	-0.000458005	-0.0166363	-0.000127224	51	3.4568e-14	1.27208e-07	6466.01	2.98991e+07	0.000127224	0.000000000000000E+000	0.000127224	0	25	0.00702421
2	0	0	1	0	0	3	612.633	-0.999851	-0.999863	-6.99534	-0.000176496	-0.017055	-4.90269e-05	53	3.62779e-14	4.90207e-08	135938	9.25352e+06	4.90269e-05	0.000000000000000E+000	4.90269e-05	0	26	0.00699438
2	1	0	0	0	0	4	612.888	2.54262e-05	-3.72119e-05	0.00862771	1.81266e-06	-0.0175774	5.03949e-07	54	2.03269e-14	0.000000000000000E+000	31694.6	0.000000000000000E+000	0.000000000000000E+000	5.03949e-07	5.03949e-07	0	27	3.21053e-10
2	1	0	0	0	1	4	613.108	2.54262e-05	0.000123062	0.00900962	1.04033e-06	-0.0182763	2.89227e-07	56	8.98157e-15	0.000000000000000E+000	5805.39	0.000000000000000E+000	0.000000000000000E+000	2.89227e-07	2.89227e-07	0	28	1.10874e-09
2	1	0	0	0	0	4	613.328	2.54262e-05	8.10855e-05	0.00404471	2.18506e-07	-0.0189754	6.0536e-08	58	5.69244e-15	0.000000000000000E+000	11421.8	0.000000000000000E+000	0.000000000000000E+000	6.0536e-08	6.0536e-08	0	29	3.27968e-10
2	0	0	1	0	1	3	613.583	-0.999851	-0.999927	-7.00641	-0.00052682	-0.0195003	-0.000146339	59	-1.0386e-16	1.46321e-07	5470.69	4.3136e+06	0.000146339	0.000000000000000E+000	0.000146339	0	29	0.00700591
2	1	0	0	0	0	5	613.815	2.54262e-05	6.58213e-05	0.00710004	6.18904e-08	-0.0196718	6.00186e-07	60	2.45448e-14	0.000000000000000E+000	17157.8	0.000000000000000E+000	0.000000000000000E+000	6.00186e-07	6.00186e-07	0	30	4.67334e-10
2	1	0	0	0	0	2	633.618	2.54262e-05	0.000203199	0.0082458	3.65711e-06	0.00204737	0.000568713	62	1.12905e-07	0.000000000000000E+000	3.35323e+07	0.000000000000000E+000	0.000000000000000E+000	0.000568713	0.000568713	0	31	1.67554e-09
2	1	0	0	0	0	4	634.468	2.54262e-05	6.20053e-05	0.016266	5.89391e-07	0.00103159	1.63693e-07	64	8.07667e-15	0.000000000000000E+000	51475.3	0.000000000000000E+000	0.000000000000000E+000	1.63693e-07	1.63693e-07	0	32	1.00858e-09
2	0	0	1	0	1	3	634.708	-0.999851	-0.999962	-9.97314	-0.00090809	0.00012521	-0.000252247	65	3.5707e-14	2.52215e-07	201315	4.57652e+06	0.000252247	0.000000000000000E+000	0.000252247	0	32	0.00997276
2	0	0	1	0	0	3	634.968	-0.999851	-0.999943	-9.87155	-0.000498251	-0.000468454	-0.000138403	67	2.43362e-14	1.38387e-07	38159.4	8.6985e+06	0.000138403	0.000000000000000E+000	0.000138403	0	33	0.00987098
2	0	0	1	0	1	3	635.228	-0.999851	-0.999756	-9.77072	-9.9733e-05	-0.00105506	-2.77036e-05	69	4.53863e-14	2.76984e-08	56176.8	816614	2.77036e-05	0.000000000000000E+000	2.77036e-05	0	34	0.00976834
2	1	0	0	0	1	4	635.468	2.54262e-05	6.96374e-05	0.0082458	1.78978e-06	-0.00192921	4.97158e-07	70	2.85397e-14	0.000000000000000E+000	36077.9	0.000000000000000E+000	0.000000000000000E+000	4.97158e-07	4.97158e-07	0	35	5.74216e-10
2	1	0	0	0	0	4	635.688	2.54262e-05	0.000111614	0.00977348	8.03346e-07	-0.00289175	2.23129e-07	72	2.30044e-14	0.000000000000000E+000	3971.65	0.000000000000000E+000	0.000000000000000E+000	2.23129e-07	2.23129e-07	0	36	1.09085e-09
2	0	0	1	0	1	3	635.918	-0.999851	-0.999878	-9.25361	-0.000945759	-0.00383597	-0.000262711	73	5.11765e-14	2.62683e-07	9149.32	3.54179e+07	0.000262711	0.000000000000000E+000	0.000262711	0	36	0.00925248
2	0	0	1	0	0	3	636.178	-0.999851	-0.999855	-8.85374	-0.000546079	-0.0043797	-0.000151689	75	5.3196e-14	1.51665e-07	20504.7	1.7859e+07	0.000151689	0.000000000000000E+000	0.000151689	0	37	0.00885246
2	0	0	1	0	1	3	636.438	-0.999851	-0.999847	-8.51842	-0.000172821	-0.00489749	-4.80059e-05	77	3.93918e-14	4.80012e-08	20992.9	2.2652e+07	4.80059e-05	0.000000000000000E+000	4.80059e-05	0	38	0.00851712
2	1	0	0	0	1	4	636.688	2.54262e-05	0.000187935	0.00862772	1.99059e-06	-0.00556348	5.52973e-07	78	5.28853e-14	0.000000000000000E+000	10868.1	0.000000000000000E+000	0.000000000000000E+000	5.52973e-07	5.52973e-07	0	39	1.62145e-09
2	1	0	0	0	0	4	636.908	2.54262e-05	-1.04995e-05	0.0189395	1.0364e-06	-0.00638217	2.87934e-07	80	2.80064e-14	0.000000000000000E+000	271627	0.000000000000000E+000	0.000000000000000E+000	2.87934e-07	2.87934e-07	0	40	1.98856e-10
2	1	0	0	0	1	4	637.128	2.54262e-05	2.76609e-05	0.0147384	1.11147e-07	-0.00718563	3.09147e-08	82	8.67468e-16	0.000000000000000E+000	1166.58	0.000000000000000E+000	0.000000000000000E+000	3.09147e-08	3.09147e-08	0	41	4.07676e-10
2	0	0	1	0	0	3	637.388	-0.999851	-0.999931	-7.8959	-0.000556421	-0.0077399	-0.000154561	83	3.23789e-14	1.5454e-07	12897.8	2.85917e+06	0.000154561	0.000000000000000E+000	0.000154561	0	41	0.00789535
2	0	0	1	0	1	3	637.648	-0.999851	-0.999897	-7.88368	-0.000237918	-0.00821113	-6.60885e-05	85	2.13631e-14	6.60814e-08	14114.5	0.000000000000000E+000	6.60885e-05	0.000000000000000E+000	6.60885e-05	0	42	0.00788286
2	1	0	0	0	1	4	637.908	2.54262e-05	0.000145958	0.0155022	2.1992e-06	-0.00875739	6.10792e-07	86	4.51461e-14	0.000000000000000E+000	15163.5	0.000000000000000E+000	0.000000000000000E+000	6.10792e-07	6.10792e-07	0	43	2.26267e-09
2	1	0	0	0	0	4	638.128	2.54262e-05	9.25336e-05	0.0227586	1.26799e-06	-0.00954337	3.5235e-07	88	1.90469e-14	0.000000000000000E+000	11080.1	0.000000000000000E+000	0.000000000000000E+000	3.5235e-07	3.5235e-07	0	44	2.10594e-09
2	1	0	0	0	1	4	638.348	2.54262e-05	0.000111614	0.00289897	3.38926e-07	-0.0103285	9.41671e-08	90	1.22372e-14	-3.18362e-17	22270.1	0.000000000000000E+000	0.000000000000000E+000	9.41671e-08	9.41671e-08	0	45	3.23565e-10
2	0	0	1	0	0	3	638.598	-0.999851	-1.00004	-7.79622	-0.000627094	-0.0109537	-0.000174193	91	4.0097e-14	1.74172e-07	25243.7	626.994	0.000174193	0.000000000000000E+000	0.000174193	0	45	0.00779651
2	0	0	1	0	1	3	638.858	-0.999851	-0.999767	-7.78132	-0.0003131	-0.011419	-8.69721e-05	93	2.74914e-14	8.696e-08	54401.9	7.46156e+06	8.69721e-05	0.000000000000000E+000	8.69721e-05	0	46	0.00777951
2	0	0	1	1	0	3	639.118	-0.999851	-0.999908	-7.73549	-1.5471e-06	-0.0118838	-4.29702e-07	95	3.96899e-14	4.29663e-10	600873	0.000000000000000E+000	4.29702e-07	0.000000000000000E+000	4.29702e-07	0	47	0.00773478
2	1	0	0	0	0	4	639.348	2.54262e-05	0.000145958	0.0109192	1.47026e-06	-0.0126562	4.08488e-07	96	2.37143e-14	0.000000000000000E+000	13288.4	0.000000000000000E+000	0.000000000000000E+000	4.08488e-07	4.08488e-07	0	48	1.59375e-09
2	1	0	0	0	1	4	639.568	2.54262e-05	0.000157406	0.00519046	5.77781e-07	-0.0134281	1.60394e-07	98	1.23857e-14	0.000000000000000E+000	7963.9	0.000000000000000E+000	0.000000000000000E+000	1.60394e-07	1.60394e-07	0	49	8.1701e-10
2	0	0	1	0	0	3	639.808	-0.999851	-0.999851	-7.71067	-0.000695174	-0.0141215	-0.000193104	99	4.41034e-14	1.93075e-07	28926.3	3.64471e+07	0.000193104	0.000000000000000E+000	0.000193104	0	49	0.00770952
2	0	0	1	0	1	3	640.068	-0.999851	-0.999946	-7.6614	-0.000386018	-0.0145807	-0.000107227	101	4.70385e-14	1.07215e-07	21346	7.22803e+06	0.000107227	0.000000000000000E+000	0.000107227	0	50	0.00766099
2	0	0	1	0	0	3	640.328	-0.999851	-0.999927	-7.62435	-7.79169e-05	-0.015038	-2.16434e-05	103	3.62533e-14	2.16414e-08	17727.3	851054	2.16434e-05	0.000000000000000E+000	2.16434e-05	0	51	0.0076238
2	1	0	0	0	0	4	640.568	2.54262e-05	7.34534e-05	0.011683	1.72111e-06	-0.0157218	4.78079e-07	104	3.66822e-14	0.000000000000000E+000	112753	0.000000000000000E+000	0.000000000000000E+000	4.78079e-07	4.78079e-07	0	52	8.58159e-10
2	1	0	0	0	1	4	640.788	2.54262e-05	-1.04994e-05	0.0139746	8.22441e-07	-0.0164822	2.28174e-07	106	1.17274e-14	0.000000000000000E+000	13453.5	0.000000000000000E+000	0.000000000000000E+000	2.28174e-07	2.28174e-07	0	53	1.46724e-10
2	0	0	1	0	0	3	641.018	-0.999851	-0.999866	-7.6129	-0.000760378	-0.0172411	-0.000211216	107	2.49162e-14	2.11188e-07	26676.2	0.000000000000000E+000	0.000211216	0.000000000000000E+000	0.000211216	0	53	0.00761188
2	0	0	1	0	1	3	641.278	-0.999851	-0.999863	-7.59342	-0.000457332	-0.0176962	-0.000127037	109	4.89638e-14	1.27021e-07	23487.9	7.05219e+06	0.000127037	0.000000000000000E+000	0.000127037	0	54	0.00759237
2	0	0	1	0	0	3	641.538	-0.999851	-0.999889	-7.57814	-0.000153007	-0.018149	-4.25019e-05	111	1.77633e-14	4.24975e-08	22742.3	3.08167e+06	4.25019e-05	0.000000000000000E+000	4.25019e-05	0	55	0.0075773
2	1	0	0	0	0	4	641.788	2.54262e-05	2.38447e-05	0.00748197	1.92597e-06	-0.0187514	5.34993e-07	112	3.38832e-14	0.000000000000000E+000	18692.8	0.000000000000000E+000	0.000000000000000E+000	5.34993e-07	5.34993e-07	0	56	1.78406e-10
2	1	0	0	0	1	4	642.008	2.54262e-05	-1.43155e-05	0.00633622	9.81247e-07	-0.0195055	2.72671e-07	114	1.16847e-14	0.000000000000000E+000	42872.4	0.000000000000000E+000	0.000000000000000E+000	2.72671e-07	2.72671e-07	0	57	9.07063e-11
2	1	0	0	0	0	4	642.228	2.54262e-05	-4.4844e-05	0.0193214	1.33145e-07	-0.020258	3.72529e-08	116	-1.6528e-15	0.000000000000000E+000	3904.87	0.000000000000000E+000	0.000000000000000E+000	3.72529e-08	3.72529e-08	0	58	8.66447e-10
2	0	0	1	0	1	3	642.488	-0.999851	-0.999901	-7.53804	-0.000529267	-0.020785	-0.000147019	117	3.30009e-14	1.47002e-07	125347	4.78428e+06	0.000147019	0.000000000000000E+000	0.000147019	0	58	0.00753729
2	0	0	1	0	0	3	642.748	-0.999851	-0.99984	-7.52696	-0.000227309	-0.0212345	-6.31416e-05	119	3.25277e-14	6.31359e-08	24073.6	9.93132e+06	6.31416e-05	0.000000000000000E+000	6.31416e-05	0	59	0.00752576
2	1	0	0	0	0	4	643.008	2.54262e-05	-1.81315e-05	0.0124469	2.19974e-06	-0.0217576	6.11051e-07	120	4.51523e-14	0.000000000000000E+000	33909.2	0.000000000000000E+000	0.000000000000000E+000	6.11051e-07	6.11051e-07	0	60	2.25681e-10
2	1	0	0	0	1	4	643.228	2.54262e-05	9.63497e-05	0.0139745	1.27273e-06	-0.0225077	3.53385e-07	122	9.95856e-15	0.000000000000000E+000	6803.65	0.000000000000000E+000	0.000000000000000E+000	3.53385e-07	3.53385e-07	0	61	1.34644e-09
2	1	0	0	0	0	0	660.829	2.54262e-05	8.49015e-05	0.0143565	0.0000000E+000	0.0000000E+000	0.000383399	124	0.000000000000000E+000	0.000000000000000E+000	0.000000000000000E+000	0.000000000000000E+000	0.000000000000000E+000	0.000383399	0.000383399	0	62	1.21888e-09
2	0	0	1	0	0	3	663.874	-0.999851	-0.999859	-8.80524	-0.000427874	0.00157595	-0.000118854	125	1.09928e-07	1.18844e-07	2.91724e+07	1.62484e+06	0.000118854	0.000000000000000E+000	0.000118854	0	62	0.008804
2	0	0	1	0	1	3	664.134	-0.999851	-0.999889	-8.09488	-4.20814e-05	0.00107432	-1.16893e-05	127	3.97726e-14	1.1688e-08	37412.8	501427	1.16893e-05	0.000000000000000E+000	1.16893e-05	0	63	0.00809398
2	1	0	0	0	1	4	664.369	2.54262e-05	0.000100166	0.00977346	1.57281e-06	0.000301969	4.36897e-07	128	3.56142e-14	0.000000000000000E+000	8586.72	0.000000000000000E+000	0.000000000000000E+000	4.36897e-07	4.36897e-07	0	64	9.78965e-10
2	1	0	0	0	0	4	664.589	2.54262e-05	8.58066e-06	0.020849	6.76356e-07	-0.000479064	1.87881e-07	130	1.98513e-15	0.000000000000000E+000	8440.23	0.000000000000000E+000	0.000000000000000E+000	1.87881e-07	1.87881e-07	0	65	1.78899e-10
2	0	0	1	0	1	3	664.824	-0.999851	-0.999969	-7.58043	-0.000725262	-0.00120269	-0.000201462	131	2.82413e-14	2.01439e-07	120962	8.26622e+06	0.000201462	0.000000000000000E+000	0.000201462	0	65	0.0075802
2	0	0	1	0	0	3	665.084	-0.999851	-0.999889	-7.56401	-0.000418855	-0.00165584	-0.000116349	133	5.1451e-14	1.16329e-07	641551	3.65811e+06	0.000116349	0.000000000000000E+000	0.000116349	0	66	0.00756317
2	0	0	1	0	1	3	665.344	-0.999851	-0.999908	-7.53078	-0.000114528	-0.00210661	-3.18133e-05	135	5.36914e-14	3.18101e-08	18252.1	3.75285e+06	3.18133e-05	0.000000000000000E+000	3.18133e-05	0	67	0.00753009
2	1	0	0	0	1	4	665.589	2.54262e-05	-6.0108e-05	0.0132107	1.91669e-06	-0.00274189	5.32406e-07	136	1.23195e-14	0.000000000000000E+000	167422	0.000000000000000E+000	0.000000000000000E+000	5.32406e-07	5.32406e-07	0	68	7.94069e-10
2	1	0	0	0	0	4	665.809	2.54262e-05	0.000210831	0.00939155	9.19565e-07	-0.00348539	2.55467e-07	138	1.88654e-14	0.000000000000000E+000	3765.69	0.000000000000000E+000	0.000000000000000E+000	2.55467e-07	2.55467e-07	0	69	1.98003e-09
2	1	0	0	1	1	4	666.029	2.54262e-05	-4.10278e-05	0.00862771	1.72554e-09	-0.00422256	5.17401e-10	140	-2.12279e-17	0.000000000000000E+000	0.000000000000000E+000	0.000000000000000E+000	0.000000000000000E+000	5.17401e-10	5.17401e-10	0	70	3.53976e-10
2	0	0	1	0	0	3	666.294	-0.999851	-0.999924	-7.3341	-0.000478102	-0.00469829	-0.000132806	141	3.77029e-14	1.32791e-07	21439	1.79045e+07	0.000132806	0.000000000000000E+000	0.000132806	0	70	0.00733354
2	0	0	1	0	1	3	666.554	-0.999851	-0.99992	-7.2982	-0.000184205	-0.00513522	-5.1168e-05	143	4.41696e-14	5.11592e-08	88749.1	2.19492e+06	5.1168e-05	0.000000000000000E+000	5.1168e-05	0	71	0.00729761
2	1	0	0	0	1	4	666.809	2.54262e-05	5.0557e-05	0.0059543	2.10009e-06	-0.00567734	5.8337e-07	144	2.93879e-14	0.000000000000000E+000	39310.2	0.000000000000000E+000	0.000000000000000E+000	5.8337e-07	5.8337e-07	0	72	3.01032e-10
2	1	0	0	0	0	4	667.029	2.54262e-05	2.76609e-05	0.00519046	1.20746e-06	-0.00640052	3.35405e-07	146	8.30769e-15	0.000000000000000E+000	15820.9	0.000000000000000E+000	0.000000000000000E+000	3.35405e-07	3.35405e-07	0	73	1.43573e-10
2	1	0	0	0	1	4	667.249	2.54262e-05	7.72695e-05	0.0143565	2.45469e-07	-0.0071217	6.81676e-08	148	1.99713e-15	0.000000000000000E+000	3215.41	0.000000000000000E+000	0.000000000000000E+000	6.81676e-08	6.81676e-08	0	74	1.10932e-09
2	0	0	1	0	0	3	667.504	-0.999851	-0.999836	-7.18171	-0.000540822	-0.00766041	-0.000150228	149	2.81755e-14	1.50212e-07	25727.4	4.72578e+07	0.000150228	0.000000000000000E+000	0.000150228	0	74	0.00718053
2	0	0	1	0	1	3	667.764	-0.999851	-0.999779	-7.17216	-0.000252528	-0.00808895	-7.01467e-05	151	2.50048e-14	7.01387e-08	7967.1	5.0861e+06	7.01467e-05	0.000000000000000E+000	7.01467e-05	0	75	0.00717058
2	1	0	0	0	1	4	668.029	2.54262e-05	8.10855e-05	0.00939154	2.27718e-06	-0.00855142	6.32523e-07	152	4.98254e-14	0.000000000000000E+000	35100.8	0.000000000000000E+000	0.000000000000000E+000	6.32523e-07	6.32523e-07	0	76	7.61517e-10
2	1	0	0	0	0	4	668.249	2.54262e-05	5.81893e-05	0.0143565	1.44479e-06	-0.00926764	4.01245e-07	154	1.99166e-14	0.000000000000000E+000	22266.4	0.000000000000000E+000	0.000000000000000E+000	4.01245e-07	4.01245e-07	0	77	8.35392e-10
2	1	0	0	0	1	4	668.469	2.54262e-05	8.10855e-05	0.0132107	4.67825e-07	-0.00998336	1.29868e-07	156	1.25028e-14	0.000000000000000E+000	4712.14	0.000000000000000E+000	0.000000000000000E+000	1.29868e-07	1.29868e-07	0	78	1.0712e-09
2	0	0	1	0	0	3	668.714	-0.999851	-0.99976	-7.17178	-0.000611267	-0.0105928	-0.000169796	157	4.75215e-14	1.69769e-07	29457.4	6.4056e+06	0.000169796	0.000000000000000E+000	0.000169796	0	78	0.00717006
2	0	0	1	0	1	3	668.974	-0.999851	-0.999931	-7.30431	-0.000330506	-0.0110295	-9.18072e-05	159	5.71188e-14	9.17955e-08	44831.1	5.77601e+06	9.18072e-05	0.000000000000000E+000	9.18072e-05	0	79	0.00730381
2	0	0	1	0	0	3	669.234	-0.999851	-0.999805	-7.27643	-3.78184e-05	-0.011465	-1.05051e-05	161	4.47738e-14	1.0503e-08	9642.09	521780	1.05051e-05	0.000000000000000E+000	1.05051e-05	0	80	0.00727501
2	1	0	0	0	0	4	669.469	2.54262e-05	-0.000235646	0.00977346	1.57892e-06	-0.0121534	4.38756e-07	162	2.64115e-14	0.000000000000000E+000	4223.64	0.000000000000000E+000	0.000000000000000E+000	4.38756e-07	4.38756e-07	0	81	2.30308e-09
2	1	0	0	0	1	4	669.689	2.54262e-05	-6.01081e-05	0.016648	6.45039e-07	-0.0128778	1.7928e-07	164	3.05568e-15	0.000000000000000E+000	4450.79	0.000000000000000E+000	0.000000000000000E+000	1.7928e-07	1.7928e-07	0	82	1.00068e-09
2	0	0	1	0	0	3	669.924	-0.999851	-0.999802	-7.24129	-0.000689391	-0.0135656	-0.000191497	165	3.7784e-14	1.9148e-07	47977.1	3.76499e+06	0.000191497	0.000000000000000E+000	0.000191497	0	82	0.00723985
2	0	0	1	0	1	3	670.184	-0.999851	-0.999912	-7.22487	-0.000399062	-0.0139972	-0.00011085	167	4.1178e-14	1.10835e-07	32527	6.54461e+06	0.00011085	0.000000000000000E+000	0.00011085	0	83	0.00722423
2	0	0	1	0	0	3	670.444	-0.999851	-0.999931	-7.20577	-0.000109516	-0.0144279	-3.04211e-05	169	4.24809e-14	3.04168e-08	10802.9	1.36709e+06	3.04211e-05	0.000000000000000E+000	3.04211e-05	0	84	0.00720528
2	1	0	0	0	0	4	670.689	2.54262e-05	5.05572e-05	0.0105373	1.80005e-06	-0.0150376	4.9981e-07	170	3.85963e-14	0.000000000000000E+000	20500.6	0.000000000000000E+000	0.000000000000000E+000	4.9981e-07	4.9981e-07	0	85	5.32736e-10
2	1	0	0	0	1	4	670.909	2.54262e-05	-0.000155509	0.0307789	8.81602e-07	-0.015755	2.45248e-07	172	8.18956e-15	0.000000000000000E+000	6804.82	0.000000000000000E+000	0.000000000000000E+000	2.45248e-07	2.45248e-07	0	86	4.78639e-09
2	1	0	0	1	0	4	671.129	2.54262e-05	3.5293e-05	0.0189395	3.78789e-09	-0.0164676	1.0348e-09	174	3.65213e-17	0.000000000000000E+000	0.000000000000000E+000	0.000000000000000E+000	0.000000000000000E+000	1.0348e-09	1.0348e-09	0	87	6.6843e-10
2	0	0	1	0	1	3	671.394	-0.999851	-0.999843	-7.12061	-0.00046478	-0.0169301	-0.000129105	175	3.47569e-14	1.29086e-07	0.000000000000000E+000	1.10763e+07	0.000129105	0.000000000000000E+000	0.000129105	0	87	0.00711949
2	0	0	1	0	0	3	671.654	-0.999851	-0.999966	-7.11335	-0.000179327	-0.0173551	-4.98128e-05	177	3.38762e-14	4.98056e-08	15481.8	1.20488e+06	4.98128e-05	0.000000000000000E+000	4.98128e-05	0	88	0.00711311
2	1	0	0	0	0	4	671.909	2.54262e-05	0.00015359	0.00748197	1.96275e-06	-0.0178859	5.45341e-07	178	3.16895e-14	0.000000000000000E+000	12548	0.000000000000000E+000	0.000000000000000E+000	5.45341e-07	5.45341e-07	0	89	1.14916e-09
2	1	0	0	0	1	4	672.129	2.54262e-05	0.000176486	0.00251706	1.12008e-06	-0.0185954	3.10958e-07	180	2.60395e-14	0.000000000000000E+000	8381.54	0.000000000000000E+000	0.000000000000000E+000	3.10958e-07	3.10958e-07	0	90	4.44227e-10
2	1	0	0	0	0	4	672.349	2.54262e-05	0.000123062	0.00939155	2.14305e-07	-0.0193038	5.95012e-08	182	6.35881e-15	0.000000000000000E+000	2806.62	0.000000000000000E+000	0.000000000000000E+000	5.95012e-08	5.95012e-08	0	91	1.15574e-09
2	0	0	1	0	1	3	672.604	-0.999851	-0.999985	-7.08471	-0.000533497	-0.0198353	-0.000148194	183	3.42426e-14	1.48174e-07	64159.2	2.05572e+06	0.000148194	0.000000000000000E+000	0.000148194	0	91	0.0070846
2	1	0	0	0	0	5	672.836	2.54262e-05	8.87174e-05	0.0170299	7.70907e-08	-0.0200087	6.67448e-07	184	5.7309e-14	0.000000000000000E+000	13117.9	0.000000000000000E+000	0.000000000000000E+000	6.67448e-07	6.67448e-07	0	92	1.51085e-09
2	1	0	0	0	0	2	692.64	2.54262e-05	0.000199383	0.00671813	3.80133e-06	0.00209161	0.000581002	186	1.15304e-07	0.000000000000000E+000	1.21802e+07	0.000000000000000E+000	0.000000000000000E+000	0.000581002	0.000581002	0	93	1.33948e-09
2	1	0	0	0	0	4	693.49	2.54262e-05	-0.000128797	0.020849	6.36749e-07	0.00110712	1.76887e-07	188	6.96956e-15	0.000000000000000E+000	3973.15	0.000000000000000E+000	0.000000000000000E+000	1.76887e-07	1.76887e-07	0	94	2.68529e-09
2	0	0	1	0	1	3	693.73	-0.999851	-0.999958	-9.2918	-0.000849452	0.000259581	-0.000235959	189	4.03617e-14	2.35939e-07	167064	1.31108e+07	0.000235959	0.000000000000000E+000	0.000235959	0	94	0.00929141
2	0	0	1	0	0	3	693.99	-0.999851	-0.999878	-9.22382	-0.000463851	-0.000292837	-0.000128848	191	4.00989e-14	1.28834e-07	6176.74	4.0532e+07	0.000128848	0.000000000000000E+000	0.000128848	0	95	0.00922269
2	0	0	1	0	1	3	694.25	-0.999851	-0.99992	-9.12643	-9.30952e-05	-0.000841701	-2.58598e-05	193	4.67587e-14	2.58568e-08	18752.1	787237	2.58598e-05	0.000000000000000E+000	2.58598e-05	0	96	0.0091257
2	1	0	0	0	1	4	694.49	2.54262e-05	5.0557e-05	0.0143565	1.85088e-06	-0.00164833	5.14135e-07	194	2.79354e-14	0.000000000000000E+000	26946	0.000000000000000E+000	0.000000000000000E+000	5.14135e-07	5.14135e-07	0	97	7.2582e-10
2	1	0	0	0	0	4	694.71	2.54262e-05	0.00011543	0.00671813	8.24427e-07	-0.0025301	2.2895e-07	196	1.92956e-14	0.000000000000000E+000	15427.8	0.000000000000000E+000	0.000000000000000E+000	2.2895e-07	2.2895e-07	0	98	7.75473e-10
2	0	0	1	0	1	3	694.94	-0.999851	-0.999859	-8.70861	-0.000875403	-0.00340389	-0.000243168	197	4.3203e-14	2.43135e-07	13056.9	1.2078e+07	0.000243168	0.000000000000000E+000	0.000243168	0	98	0.00870738
2	0	0	1	0	0	3	695.2	-0.999851	-0.999824	-8.63949	-0.000521255	-0.00392264	-0.000144793	199	5.04888e-14	1.44779e-07	17740.1	7.59792e+06	0.000144793	0.000000000000000E+000	0.000144793	0	99	0.00863797
2	0	0	1	0	1	3	695.46	-0.999851	-0.999851	-8.5272	-0.0001726	-0.00443547	-4.79444e-05	201	4.22139e-14	4.79382e-08	59460.5	2.26053e+06	4.79444e-05	0.000000000000000E+000	4.79444e-05	0	100	0.00852594
2	1	0	0	0	1	4	695.71	2.54262e-05	1.23968e-05	0.0132107	2.10364e-06	-0.00511122	5.84405e-07	202	3.56281e-14	0.000000000000000E+000	91886.8	0.000000000000000E+000	0.000000000000000E+000	5.84405e-07	5.84405e-07	0	101	1.6377e-10
2	1	0	0	0	0	4	695.93	2.54262e-05	0.000165038	0.00977346	1.07405e-06	-0.00594806	2.98411e-07	204	3.08264e-14	0.000000000000000E+000	9707.48	0.000000000000000E+000	0.000000000000000E+000	2.98411e-07	2.98411e-07	0	102	1.613e-09
2	1	0	0	0	1	4	696.15	2.54262e-05	2.76609e-05	0.00633621	1.15348e-07	-0.00677563	3.20789e-08	206	9.15465e-16	0.000000000000000E+000	1592.78	0.000000000000000E+000	0.000000000000000E+000	3.20789e-08	3.20789e-08	0	103	1.75265e-10
2	0	0	1	0	0	3	696.41	-0.999851	-0.999843	-8.20601	-0.000578057	-0.00735142	-0.000160571	207	3.81887e-14	1.6055e-07	31214.6	7.5767e+06	0.000160571	0.000000000000000E+000	0.000160571	0	103	0.00820473
2	0	0	1	0	1	3	696.67	-0.999851	-1.00005	-8.18272	-0.000247005	-0.00784041	-6.86125e-05	209	4.44467e-14	6.86075e-08	7789.41	1.15627e+06	6.86125e-05	0.000000000000000E+000	6.86125e-05	0	104	0.00818312
2	1	0	0	0	1	4	696.93	2.54262e-05	6.20053e-05	0.00748197	2.3525e-06	-0.00840837	6.53478e-07	210	2.92885e-14	0.000000000000000E+000	47421.7	0.000000000000000E+000	0.000000000000000E+000	6.53478e-07	6.53478e-07	0	105	4.63922e-10
2	1	0	0	0	0	4	697.15	2.54262e-05	8.87176e-05	0.0116831	1.42114e-06	-0.00923916	3.94777e-07	212	3.51974e-14	0.000000000000000E+000	41380.8	0.000000000000000E+000	0.000000000000000E+000	3.94777e-07	3.94777e-07	0	106	1.03649e-09
2	1	0	0	0	1	4	697.37	2.54262e-05	5.81892e-05	0.0158841	3.68105e-07	-0.0100964	1.02187e-07	214	5.25512e-15	0.000000000000000E+000	7415.51	0.000000000000000E+000	0.000000000000000E+000	1.02187e-07	1.02187e-07	0	107	9.24283e-10
2	0	0	1	0	0	3	697.62	-0.999851	-0.999943	-8.25528	-0.000666925	-0.0107612	-0.000185257	215	4.25433e-14	1.85231e-07	41077.5	4.16263e+06	0.000185257	0.000000000000000E+000	0.000185257	0	107	0.00825481
2	0	0	1	0	1	3	697.88	-0.999851	-0.999908	-8.21174	-0.000330536	-0.0112528	-9.18157e-05	217	5.25392e-14	9.1806e-08	214931	4.12304e+06	9.18157e-05	0.000000000000000E+000	9.18157e-05	0	108	0.00821099
2	0	0	1	1	0	3	698.14	-0.999851	-0.999885	-8.1197	-1.62394e-06	-0.0117419	-4.51174e-07	219	4.72186e-14	4.51122e-10	42823.5	0.000000000000000E+000	4.51174e-07	0.000000000000000E+000	4.51174e-07	0	109	0.00811877
2	1	0	0	0	0	4	698.37	2.54262e-05	8.87176e-05	0.0189395	1.58743e-06	-0.0125503	4.41085e-07	220	1.56639e-14	0.000000000000000E+000	19814.9	0.000000000000000E+000	0.000000000000000E+000	4.41085e-07	4.41085e-07	0	110	1.68026e-09
2	1	0	0	0	1	4	698.59	2.54262e-05	7.34534e-05	0.0242863	6.07953e-07	-0.0133547	1.68932e-07	222	8.86253e-15	0.000000000000000E+000	19921	0.000000000000000E+000	0.000000000000000E+000	1.68932e-07	1.68932e-07	0	111	1.78391e-09
2	0	0	1	0	0	3	698.83	-0.999851	-0.999843	-8.03109	-0.000724247	-0.0140771	-0.00020118	223	2.63922e-14	2.0116e-07	45237.2	1.11681e+07	0.00020118	0.000000000000000E+000	0.00020118	0	111	0.00802984
2	0	0	1	0	1	3	699.09	-0.999851	-1.00002	-7.98106	-0.000401921	-0.0145553	-0.000111645	225	3.85838e-14	1.11637e-07	16151.4	7.03141e+06	0.000111645	0.000000000000000E+000	0.000111645	0	112	0.00798121
2	0	0	1	0	0	3	699.35	-0.999851	-0.999847	-7.98985	-8.13493e-05	-0.0150324	-2.2597e-05	227	2.73618e-14	2.25935e-08	50087.6	1.42168e+06	2.2597e-05	0.000000000000000E+000	2.2597e-05	0	113	0.00798863
2	1	0	0	0	0	4	699.59	2.54262e-05	-2.86743e-06	0.0101554	1.87556e-06	-0.0157464	5.21023e-07	228	2.08841e-14	0.000000000000000E+000	40960.5	0.000000000000000E+000	0.000000000000000E+000	5.21023e-07	5.21023e-07	0	114	2.91198e-11
2	1	0	0	0	1	4	699.81	2.54262e-05	-1.43155e-05	0.0227586	8.63917e-07	-0.01654	2.40074e-07	230	1.12885e-14	0.000000000000000E+000	8088.68	0.000000000000000E+000	0.000000000000000E+000	2.40074e-07	2.40074e-07	0	115	3.25802e-10
2	0	0	1	0	0	3	700.04	-0.999851	-0.999817	-7.92836	-0.000792243	-0.0173307	-0.000220067	231	3.49565e-14	2.20044e-07	20988.7	9.02964e+06	0.000220067	0.000000000000000E+000	0.000220067	0	115	0.00792691
2	0	0	1	0	1	3	700.3	-0.999851	-0.999809	-7.90468	-0.000476049	-0.0178044	-0.000132235	233	2.61131e-14	1.32221e-07	44557.5	8.31087e+06	0.000132235	0.000000000000000E+000	0.000132235	0	116	0.00790317
2	0	0	1	0	0	3	700.56	-0.999851	-0.99987	-7.89399	-0.000159354	-0.0182762	-4.42647e-05	235	4.45508e-14	4.42615e-08	23785.9	4.17734e+06	4.42647e-05	0.000000000000000E+000	4.42647e-05	0	117	0.00789296
2	1	0	0	0	0	4	700.81	2.54262e-05	8.49016e-05	0.0147384	2.02848e-06	-0.0189035	5.6345e-07	236	3.32073e-14	0.000000000000000E+000	17146.8	0.000000000000000E+000	0.000000000000000E+000	5.6345e-07	5.6345e-07	0	118	1.25131e-09
2	1	0	0	0	1	4	701.03	2.54262e-05	4.67411e-05	0.0158841	1.0697e-06	-0.0196898	2.97506e-07	238	1.06618e-14	0.000000000000000E+000	28066.3	0.000000000000000E+000	0.000000000000000E+000	2.97506e-07	2.97506e-07	0	119	7.42441e-10
2	1	0	0	0	0	4	701.25	2.54262e-05	7.34534e-05	0.0082458	1.24896e-07	-0.020475	3.46659e-08	240	2.4713e-15	0.000000000000000E+000	860.614	0.000000000000000E+000	0.000000000000000E+000	3.46659e-08	3.46659e-08	0	120	6.05682e-10
2	0	0	1	0	1	3	701.51	-0.999851	-0.999988	-7.85045	-0.00055094	-0.0210237	-0.000153039	241	3.44275e-14	1.53024e-07	19371.8	3.35873e+06	0.000153039	0.000000000000000E+000	0.000153039	0	120	0.00785036
2	0	0	1	0	0	3	701.77	-0.999851	-0.99984	-7.83975	-0.000236684	-0.0214919	-6.57457e-05	243	3.24313e-14	6.57413e-08	10194.3	4.77272e+06	6.57457e-05	0.000000000000000E+000	6.57457e-05	0	121	0.0078385
2	1	0	0	0	0	4	702.03	2.54262e-05	7.72693e-05	0.0105373	2.25572e-06	-0.0220373	6.26573e-07	244	4.14768e-14	0.000000000000000E+000	98516.4	0.000000000000000E+000	0.000000000000000E+000	6.26573e-07	6.26573e-07	0	122	8.1421e-10
2	1	0	0	0	1	4	702.25	2.54262e-05	5.0557e-05	0.00786388	1.34911e-06	-0.0228183	3.74599e-07	246	2.08815e-14	0.000000000000000E+000	12185.9	0.000000000000000E+000	0.000000000000000E+000	3.74599e-07	3.74599e-07	0	123	3.97574e-10
2	1	0	0	0	0	0	719.851	2.54262e-05	0.000142142	0.00748197	0.0000000E+000	0.0000000E+000	0.000407184	248	0.000000000000000E+000	0.000000000000000E+000	0.000000000000000E+000	0.000000000000000E+000	0.000000000000000E+000	0.000407184	0.000407184	0	124	1.0635e-09
2	0	0	1	0	0	3	722.896	-0.999851	-0.999977	-8.89537	-0.000413236	0.00150086	-0.000114788	249	1.04993e-07	1.14779e-07	3.85841e+07	2.7754e+06	0.000114788	0.000000000000000E+000	0.000114788	0	124	0.00889517
2	0	0	1	0	1	3	723.156	-0.999851	-0.999927	-8.62154	-4.48541e-05	0.000975671	-1.24594e-05	251	4.93628e-14	1.24585e-08	22508.4	335949	1.24594e-05	0.000000000000000E+000	1.24594e-05	0	125	0.00862091
2	1	0	0	0	1	4	723.391	2.54262e-05	6.20053e-05	0.00519048	1.65217e-06	0.000173297	4.58939e-07	252	4.47369e-14	-3.91399e-17	33324.9	0.000000000000000E+000	0.000000000000000E+000	4.58939e-07	4.58939e-07	0	126	3.21837e-10
2	1	0	0	0	0	4	723.611	2.54262e-05	2.00288e-05	0.0185575	6.73148e-07	-0.000652951	1.86992e-07	254	1.24209e-14	0.000000000000000E+000	35281.4	0.000000000000000E+000	0.000000000000000E+000	1.86992e-07	1.86992e-07	0	127	3.71685e-10
2	0	0	1	0	1	3	723.846	-0.999851	-0.999897	-8.09182	-0.000772443	-0.00142372	-0.000214568	255	4.56596e-14	2.14538e-07	307079	1.34994e+07	0.000214568	0.000000000000000E+000	0.000214568	0	127	0.00809099
2	0	0	1	0	0	3	724.106	-0.999851	-0.999985	-8.05363	-0.000444792	-0.00190493	-0.000123553	257	5.20433e-14	1.2354e-07	315043	8.31926e+06	0.000123553	0.000000000000000E+000	0.000123553	0	128	0.0080535
2	0	0	1	0	1	3	724.366	-0.999851	-0.999916	-8.00971	-0.000121712	-0.00238445	-3.38089e-05	259	5.10604e-14	3.38064e-08	16326.9	1.51934e+06	3.38089e-05	0.000000000000000E+000	3.38089e-05	0	129	0.00800903
2	1	0	0	0	1	4	724.611	2.54262e-05	4.67412e-05	0.0132107	1.81854e-06	-0.00306141	5.05113e-07	260	2.74715e-14	0.000000000000000E+000	28030.3	0.000000000000000E+000	0.000000000000000E+000	5.05113e-07	5.05113e-07	0	130	6.17484e-10
2	1	0	0	0	0	4	724.831	2.54262e-05	9.63497e-05	0.011683	9.51188e-07	-0.00385193	2.64198e-07	262	8.06169e-15	0.000000000000000E+000	7330.61	0.000000000000000E+000	0.000000000000000E+000	2.64198e-07	2.64198e-07	0	131	1.12566e-09
2	1	0	0	1	1	4	725.051	2.54262e-05	-7.91883e-05	0.016648	3.32959e-09	-0.00463664	1.0348e-09	264	-8.19443e-17	0.000000000000000E+000	0.000000000000000E+000	0.000000000000000E+000	0.000000000000000E+000	1.0348e-09	1.0348e-09	0	132	1.31832e-09
2	0	0	1	0	0	3	725.316	-0.999851	-0.999981	-7.81569	-0.000510037	-0.00514425	-0.000141677	265	1.84289e-14	1.41662e-07	31836.9	1.48559e+07	0.000141677	0.000000000000000E+000	0.000141677	0	132	0.00781554
2	0	0	1	0	1	3	725.576	-0.999851	-0.999809	-7.77788	-0.000196081	-0.00560997	-5.4467e-05	267	4.72327e-14	5.44581e-08	16889.3	1.29008e+07	5.4467e-05	0.000000000000000E+000	5.4467e-05	0	133	0.0077764
2	1	0	0	0	1	4	725.831	2.54262e-05	-5.6292e-05	0.00977346	2.14768e-06	-0.00618773	5.96564e-07	268	1.58805e-14	0.000000000000000E+000	12234.6	0.000000000000000E+000	0.000000000000000E+000	5.96564e-07	5.96564e-07	0	134	5.50168e-10
2	1	0	0	0	0	4	726.051	2.54262e-05	6.20053e-05	0.0132107	1.17904e-06	-0.00695878	3.27515e-07	270	1.9564e-14	-3.20706e-18	77304	0.000000000000000E+000	0.000000000000000E+000	3.27515e-07	3.27515e-07	0	135	8.19134e-10
2	1	0	0	0	1	4	726.271	2.54262e-05	0.000161222	0.000989387	2.22707e-07	-0.00773727	6.18295e-08	272	9.76788e-15	0.000000000000000E+000	2011.35	0.000000000000000E+000	0.000000000000000E+000	6.18295e-08	6.18295e-08	0	136	1.59511e-10
2	0	0	1	0	0	3	726.526	-0.999851	-0.999946	-7.78285	-0.000586967	-0.00832208	-0.000163046	273	4.32148e-14	1.63026e-07	26063	5.30585e+06	0.000163046	0.000000000000000E+000	0.000163046	0	136	0.00778243
2	0	0	1	0	1	3	726.786	-0.999851	-0.999863	-7.75726	-0.000273075	-0.00878587	-7.58542e-05	275	2.92732e-14	7.5843e-08	23692.1	5.95766e+06	7.58542e-05	0.000000000000000E+000	7.58542e-05	0	137	0.00775619
2	1	0	0	0	1	4	727.051	2.54262e-05	7.34534e-05	0.0101554	2.29796e-06	-0.00928518	6.38215e-07	276	5.52723e-14	0.000000000000000E+000	19422	0.000000000000000E+000	0.000000000000000E+000	6.38215e-07	6.38215e-07	0	138	7.45947e-10
2	1	0	0	0	0	4	727.271	2.54262e-05	4.67412e-05	0.00748195	1.38864e-06	-0.0100544	3.85723e-07	278	2.38635e-14	0.000000000000000E+000	45486	0.000000000000000E+000	0.000000000000000E+000	3.85723e-07	3.85723e-07	0	139	3.49716e-10
2	1	0	0	0	1	4	727.491	2.54262e-05	0.00011543	0.0113011	4.7722e-07	-0.0108213	1.32455e-07	280	1.69616e-14	0.000000000000000E+000	7350.35	0.000000000000000E+000	0.000000000000000E+000	1.32455e-07	1.32455e-07	0	140	1.30449e-09
2	0	0	1	0	0	3	727.736	-0.999851	-0.999889	-7.64078	-0.000651907	-0.0114714	-0.000181086	281	5.76978e-14	1.81063e-07	12446.8	5.02398e+06	0.000181086	0.000000000000000E+000	0.000181086	0	140	0.00763993
2	0	0	1	0	1	3	727.996	-0.999851	-0.999832	-7.64116	-0.000345165	-0.0119274	-9.58791e-05	283	4.5994e-14	9.5864e-08	66952.2	4.11286e+06	9.58791e-05	0.000000000000000E+000	9.58791e-05	0	141	0.00763987
2	0	0	1	0	0	3	728.256	-0.999851	-0.999851	-7.61213	-3.95926e-05	-0.0123829	-1.09979e-05	285	4.54369e-14	1.09962e-08	29472.5	1.05437e+07	1.09979e-05	0.000000000000000E+000	1.09979e-05	0	142	0.007611
2	1	0	0	0	0	4	728.491	2.54262e-05	0.000184119	0.00289897	1.64193e-06	-0.0131034	4.56089e-07	286	3.63652e-14	0.000000000000000E+000	19557.7	0.000000000000000E+000	0.000000000000000E+000	4.56089e-07	4.56089e-07	0	143	5.33754e-10
2	1	0	0	0	1	4	728.711	2.54262e-05	-2.19476e-05	0.0082458	6.96521e-07	-0.0138617	1.93508e-07	288	1.39177e-14	0.000000000000000E+000	9127.65	0.000000000000000E+000	0.000000000000000E+000	1.93508e-07	1.93508e-07	0	144	1.80976e-10
2	0	0	1	0	0	3	728.946	-0.999851	-1	-7.55103	-0.00072098	-0.0145811	-0.000200272	289	4.97252e-14	2.00251e-07	149300	6.51726e+06	0.000200272	0.000000000000000E+000	0.000200272	0	144	0.00755102
2	0	0	1	0	1	3	729.206	-0.999851	-0.999988	-7.55103	-0.000416913	-0.015032	-0.000115809	291	8.23257e-15	1.15799e-07	40529.3	2.60217e+06	0.000115809	0.000000000000000E+000	0.000115809	0	145	0.00755094
2	0	0	1	0	0	3	729.466	-0.999851	-0.999866	-7.53499	-0.000114703	-0.0154829	-3.18621e-05	293	2.91446e-14	3.18583e-08	14083.7	4.29555e+06	3.18621e-05	0.000000000000000E+000	3.18621e-05	0	146	0.00753398
2	1	0	0	0	0	4	729.711	2.54262e-05	3.14768e-05	0.00786388	1.85375e-06	-0.016121	5.14814e-07	294	2.63652e-14	0.000000000000000E+000	242833	0.000000000000000E+000	0.000000000000000E+000	5.14814e-07	5.14814e-07	0	147	2.4753e-10
2	1	0	0	0	1	4	729.931	2.54262e-05	6.20053e-05	0.00557237	9.35605e-07	-0.0168726	2.60253e-07	296	7.85829e-15	0.000000000000000E+000	12922	0.000000000000000E+000	0.000000000000000E+000	2.60253e-07	2.60253e-07	0	148	3.45516e-10
2	1	0	0	1	0	4	730.151	2.54262e-05	1.23966e-05	0.011683	2.33661e-09	-0.0176245	5.17401e-10	298	6.41404e-18	0.000000000000000E+000	0.000000000000000E+000	0.000000000000000E+000	0.000000000000000E+000	5.17401e-10	5.17401e-10	0	149	1.44831e-10
2	0	0	1	0	1	3	730.416	-0.999851	-0.99995	-7.52735	-0.000490407	-0.0181126	-0.000136224	299	3.37369e-14	1.36213e-07	62624.4	5.35655e+06	0.000136224	0.000000000000000E+000	0.000136224	0	149	0.00752697
2	0	0	1	0	0	3	730.676	-0.999851	-0.999939	-7.50252	-0.000189118	-0.0185611	-5.25328e-05	301	2.05498e-14	5.25274e-08	54978.9	2.91893e+06	5.25328e-05	0.000000000000000E+000	5.25328e-05	0	150	0.00750206
2	1	0	0	0	0	4	730.931	2.54262e-05	4.76468e-06	0.0151203	2.09222e-06	-0.0191211	5.81042e-07	302	2.19954e-14	0.000000000000000E+000	34259.2	0.000000000000000E+000	0.000000000000000E+000	5.81042e-07	5.81042e-07	0	151	7.20434e-11
2	1	0	0	0	1	4	731.151	2.54262e-05	4.67411e-05	0.00213515	1.19218e-06	-0.0198697	3.31137e-07	304	2.08047e-14	0.000000000000000E+000	34710.1	0.000000000000000E+000	0.000000000000000E+000	3.31137e-07	3.31137e-07	0	152	9.97991e-11
2	1	0	0	0	0	4	731.371	2.54262e-05	0.00013451	0.00862771	2.38213e-07	-0.0206183	6.62274e-08	306	4.28217e-15	0.000000000000000E+000	1893.27	0.000000000000000E+000	0.000000000000000E+000	6.62274e-08	6.62274e-08	0	153	1.16051e-09
2	0	0	1	0	1	3	731.626	-0.999851	-0.999855	-7.50252	-0.000563858	-0.02118	-0.000156627	307	5.3727e-14	1.56609e-07	30970.5	2.95624e+07	0.000156627	0.000000000000000E+000	0.000156627	0	153	0.00750143
2	1	0	0	0	0	5	731.858	2.54262e-05	1.23966e-05	0.0147384	8.14445e-08	-0.0213638	6.809e-07	308	3.4991e-14	0.000000000000000E+000	24705.9	0.000000000000000E+000	0.000000000000000E+000	6.809e-07	6.809e-07	0	154	1.82706e-10
2	1	0	0	0	0	2	751.662	2.54262e-05	-2.86743e-06	0.00977346	4.00664e-06	0.00210904	0.000585844	310	1.16244e-07	0.000000000000000E+000	3.07043e+07	0.000000000000000E+000	0.000000000000000E+000	0.000585844	0.000585844	0	155	2.80247e-11
2	1	0	0	0	0	4	752.512	2.54262e-05	-2.57636e-05	0.0311608	6.14827e-07	0.00113726	1.70775e-07	312	1.09211e-14	0.000000000000000E+000	4882.02	0.000000000000000E+000	0.000000000000000E+000	1.70775e-07	1.70775e-07	0	156	8.02814e-10
2	0	0	1	0	1	3	752.752	-0.999851	-0.999855	-9.17608	-0.000841676	0.000297488	-0.000233799	313	5.16686e-14	2.33773e-07	43978.7	4.41281e+07	0.000233799	0.000000000000000E+000	0.000233799	0	156	0.00917475
2	0	0	1	0	0	3	753.012	-0.999851	-0.999779	-9.03744	-0.000456077	-0.0002457	-0.000126688	315	4.74995e-14	1.2667e-07	29976.8	456.132	0.000126688	0.000000000000000E+000	0.000126688	0	157	0.00903544
2	0	0	1	0	1	3	753.272	-0.999851	-0.99992	-8.93433	-9.11317e-05	-0.000782529	-2.53144e-05	317	4.18944e-14	2.53124e-08	36020.5	322697	2.53144e-05	0.000000000000000E+000	2.53144e-05	0	158	0.00893361
2	1	0	0	0	1	4	753.512	2.54262e-05	1.23966e-05	0.0101554	1.92635e-06	-0.00157768	5.3509e-07	318	3.4576e-14	0.000000000000000E+000	84133	0.000000000000000E+000	0.000000000000000E+000	5.3509e-07	5.3509e-07	0	159	1.25893e-10
2	1	0	0	0	0	4	753.732	2.54262e-05	-4.10278e-05	0.0158841	9.05699e-07	-0.00245159	2.51586e-07	320	1.5308e-14	0.000000000000000E+000	14834	0.000000000000000E+000	0.000000000000000E+000	2.51586e-07	2.51586e-07	0	160	6.51692e-10
2	0	0	1	0	1	3	753.961	-0.999851	-0.999809	-8.61734	-0.00086472	-0.00331464	-0.0002402	321	3.48693e-14	2.40167e-07	51899	7.81238e+06	0.0002402	0.000000000000000E+000	0.0002402	0	160	0.00861569
2	0	0	1	0	0	3	754.222	-0.999851	-1.00008	-8.56119	-0.000518032	-0.00383018	-0.000143898	323	3.67372e-14	1.43891e-07	15202.3	2.77141e+06	0.000143898	0.000000000000000E+000	0.000143898	0	161	0.00856185
2	0	0	1	0	1	3	754.482	-0.999851	-0.999958	-8.49703	-0.000171881	-0.00434057	-4.77446e-05	325	2.50307e-14	4.77398e-08	36269.3	9.0115e+06	4.77446e-05	0.000000000000000E+000	4.77446e-05	0	162	0.00849667
2	1	0	0	0	1	4	754.732	2.54262e-05	1.62128e-05	0.012065	2.09921e-06	-0.00501475	5.83111e-07	326	4.27574e-14	0.000000000000000E+000	91683.5	0.000000000000000E+000	0.000000000000000E+000	5.83111e-07	5.83111e-07	0	163	1.95607e-10
2	1	0	0	0	0	4	754.952	2.54262e-05	0.000107798	0.00977348	1.1334e-06	-0.00585492	3.14839e-07	328	1.06205e-14	0.000000000000000E+000	74253.4	0.000000000000000E+000	0.000000000000000E+000	3.14839e-07	3.14839e-07	0	164	1.05356e-09
2	1	0	0	0	1	4	755.172	2.54262e-05	5.81892e-05	0.0135926	1.18556e-07	-0.00669152	3.29843e-08	330	1.91538e-15	0.000000000000000E+000	31117.4	0.000000000000000E+000	0.000000000000000E+000	3.29843e-08	3.29843e-08	0	165	7.90943e-10
2	0	0	1	0	0	3	755.432	-0.999851	-0.999828	-8.32288	-0.000585532	-0.00727474	-0.000162648	331	3.57538e-14	1.62632e-07	90806.2	3.0795e+07	0.000162648	0.000000000000000E+000	0.000162648	0	165	0.00832145
2	0	0	1	0	1	3	755.692	-0.999851	-1.00002	-8.28278	-0.000250638	-0.00777108	-6.96218e-05	333	2.68715e-14	6.96144e-08	11774.5	1.5632e+06	6.96218e-05	0.000000000000000E+000	6.96218e-05	0	166	0.00828294
2	1	0	0	0	1	4	755.952	2.54262e-05	6.20053e-05	0.011683	2.31026e-06	-0.00834702	6.41836e-07	334	3.61396e-14	0.000000000000000E+000	46576.9	0.000000000000000E+000	0.000000000000000E+000	6.41836e-07	6.41836e-07	0	167	7.2441e-10
2	1	0	0	0	0	4	756.172	2.54262e-05	3.5293e-05	0.0223767	1.32742e-06	-0.00917005	3.68649e-07	336	1.7622e-14	0.000000000000000E+000	18304.1	0.000000000000000E+000	0.000000000000000E+000	3.68649e-07	3.68649e-07	0	168	7.8974e-10
2	1	0	0	0	1	4	756.392	2.54262e-05	9.48552e-07	0.00824579	3.54967e-07	-0.00998982	9.8565e-08	338	-3.18795e-17	0.000000000000000E+000	3719.4	0.000000000000000E+000	0.000000000000000E+000	9.8565e-08	9.8565e-08	0	169	7.82156e-12
2	0	0	1	0	0	3	756.642	-0.999851	-0.999878	-8.1831	-0.000656448	-0.0106443	-0.000182347	339	3.30434e-14	1.82325e-07	10502.8	2.45834e+07	0.000182347	0.000000000000000E+000	0.000182347	0	169	0.0081821
2	0	0	1	0	1	3	756.902	-0.999851	-0.999977	-8.15369	-0.000328052	-0.0111318	-9.11253e-05	341	1.80317e-14	9.11187e-08	42498.1	1.07496e+07	9.11253e-05	0.000000000000000E+000	9.11253e-05	0	170	0.0081535
2	0	0	1	1	0	3	757.162	-0.999851	-0.999847	-8.10901	-1.6218e-06	-0.0116187	-4.50398e-07	343	5.32374e-14	4.50329e-10	20965.1	0.000000000000000E+000	4.50398e-07	0.000000000000000E+000	4.50398e-07	0	171	0.00810777
2	1	0	0	0	0	4	757.392	2.54262e-05	4.67411e-05	0.00289897	1.56673e-06	-0.0124294	4.35393e-07	344	2.48189e-14	0.000000000000000E+000	68457.5	0.000000000000000E+000	0.000000000000000E+000	4.35393e-07	4.35393e-07	0	172	1.35501e-10
2	1	0	0	0	1	4	757.612	2.54262e-05	9.63497e-05	0.00748197	5.52728e-07	-0.01324	1.5341e-07	346	1.34008e-14	0.000000000000000E+000	5566.32	0.000000000000000E+000	0.000000000000000E+000	1.5341e-07	1.5341e-07	0	173	7.20885e-10
2	0	0	1	0	0	3	757.852	-0.999851	-0.999905	-8.09106	-0.000730707	-0.013969	-0.000202974	347	3.66702e-14	2.02955e-07	46689.6	4.55903e+06	0.000202974	0.000000000000000E+000	0.000202974	0	173	0.00809028
2	0	0	1	0	1	3	758.112	-0.999851	-0.999836	-8.08189	-0.000405556	-0.0144515	-0.000112654	349	2.89822e-14	1.12642e-07	309582	9.66491e+06	0.000112654	0.000000000000000E+000	0.000112654	0	174	0.00808056
2	0	0	1	0	0	3	758.372	-0.999851	-0.999878	-8.05897	-8.21113e-05	-0.0149331	-2.28086e-05	351	2.15012e-14	2.28071e-08	11303.3	1.53578e+06	2.28086e-05	0.000000000000000E+000	2.28086e-05	0	175	0.00805799
2	1	0	0	0	0	4	758.612	2.54262e-05	4.76468e-06	0.0109192	1.75434e-06	-0.0156547	4.87392e-07	352	2.84518e-14	0.000000000000000E+000	38316.5	0.000000000000000E+000	0.000000000000000E+000	4.87392e-07	4.87392e-07	0	176	5.20265e-11
2	1	0	0	0	1	4	758.832	2.54262e-05	4.67411e-05	0.00671813	7.99144e-07	-0.0164561	2.21965e-07	354	2.01601e-14	0.000000000000000E+000	13959.9	0.000000000000000E+000	0.000000000000000E+000	2.21965e-07	2.21965e-07	0	177	3.14013e-10
2	0	0	1	0	0	3	759.061	-0.999851	-0.999843	-8.00665	-0.000800293	-0.0172548	-0.000222303	355	4.37897e-14	2.22281e-07	25564.7	6.99305e+07	0.000222303	0.000000000000000E+000	0.000222303	0	177	0.0080054
2	0	0	1	0	1	3	759.322	-0.999851	-0.999992	-7.97152	-0.000480763	-0.0177332	-0.000133545	357	3.22087e-14	1.3353e-07	16377.4	6.62767e+06	0.000133545	0.000000000000000E+000	0.000133545	0	178	0.00797145
2	0	0	1	0	0	3	759.582	-0.999851	-0.999824	-7.9635	-0.000160801	-0.0182092	-4.46673e-05	359	3.12683e-14	4.46611e-08	26073.2	4.6837e+06	4.46673e-05	0.000000000000000E+000	4.46673e-05	0	179	0.0079621
2	1	0	0	0	0	4	759.832	2.54262e-05	0.000168854	0.00289897	2.03543e-06	-0.0188417	5.6552e-07	360	2.49068e-14	0.000000000000000E+000	7731.94	0.000000000000000E+000	0.000000000000000E+000	5.6552e-07	5.6552e-07	0	180	4.89504e-10
2	1	0	0	0	1	4	760.052	2.54262e-05	1.62128e-05	0.0059543	1.07062e-06	-0.0196319	2.97506e-07	362	7.70605e-15	0.000000000000000E+000	70165.5	0.000000000000000E+000	0.000000000000000E+000	2.97506e-07	2.97506e-07	0	181	9.65356e-11
2	1	0	0	0	0	4	760.272	2.54262e-05	1.23968e-05	0.0155022	1.22833e-07	-0.0204206	3.41485e-08	364	4.64794e-16	0.000000000000000E+000	1534.06	0.000000000000000E+000	0.000000000000000E+000	3.41485e-08	3.41485e-08	0	182	1.92178e-10
2	0	0	1	0	1	3	760.532	-0.999851	-0.999893	-7.86611	-0.000553458	-0.0209718	-0.000153738	365	3.04525e-14	1.53726e-07	67521.7	3.53867e+06	0.000153738	0.000000000000000E+000	0.000153738	0	182	0.00786527
2	0	0	1	0	0	3	760.792	-0.999851	-0.999935	-7.84816	-0.000236876	-0.0214408	-6.5799e-05	367	2.12329e-14	6.57917e-08	19949.5	3.10479e+07	6.5799e-05	0.000000000000000E+000	6.5799e-05	0	183	0.00784765
2	1	0	0	0	0	4	761.052	2.54262e-05	-4.48438e-05	0.011683	2.20531e-06	-0.0219853	6.12603e-07	368	2.20016e-14	0.000000000000000E+000	577908	0.000000000000000E+000	0.000000000000000E+000	6.12603e-07	6.12603e-07	0	184	5.23912e-10
2	1	0	0	0	1	4	761.272	2.54262e-05	3.91091e-05	0.0113011	1.321e-06	-0.0227633	3.66838e-07	370	8.2674e-15	0.000000000000000E+000	115358	0.000000000000000E+000	0.000000000000000E+000	3.66838e-07	3.66838e-07	0	185	4.41976e-10
2	1	0	0	0	0	7	762.471	2.54262e-05	2.38449e-05	0.012065	1.14524e-06	-0.0212949	0.000408269	370	8.14535e-08	0.000000000000000E+000	5.50224e+07	0.000000000000000E+000	0.000000000000000E+000	0.000408269	0.000408269	0	185	2.87688e-10