File: data_examples/SRDP_10ms.mpt
EC-Lab ASCII FILE
Nb header lines : 66

Chronoamperometry / Chronocoulometry

Run on channel : 1 (SN 3020)
User :
Electrode connection : standard
Ewe ctrl range : min = -10.00 V, max = 10.00 V
Ewe,I filtering : <None>
Channel : Grounded
Acquisition started on : 04/06/2022 13:48:24
Saved on :
	File : SRDP_2_1_01_srdp5x_cond1p5V_30xpulse-minus1V-read-plus200mV_t-100ms-dt-10-50-100-200-500ms-GISYA-EWE-materials_04_CA_C01.mpr
	Directory : C:\Users\AGH\Desktop\AnJ\2022-04-05-06_ITO_Ni[Me4Benzo]_Cu\
	Host : 192.109.209.128
Device : SP-300 (SN 0552)
Address : USB
EC-Lab for windows v11.20 (software)
Internet server v11.20 (firmware)
Command interpretor v11.20 (firmware)
Electrode material :
Initial state :
Electrolyte :
Comments :
Cable : standard
Electrode surface area : 0.001 cm²
Characteristic mass : 0.001 g
Equivalent Weight : 0.000 g/eq.
Density : 0.000 g/cm3
Ns                  0                   1                   2                   3                   4                   5                   6                   7
Ei (V)              0.000               0.200               0.000               -1.000              0.000               0.000               0.200               0.000
vs.                 Ref                 Ref                 Ref                 Ref                 Ref                 Ref                 Ref                 Ref
ti (h:m:s)          0:00:1.0000         0:00:1.0000         0:00:1.0000         0:00:0.1000         0:00:0.0100         0:00:0.0100         0:00:1.0000         0:00:0.1000
Imax                pass                pass                pass                pass                pass                pass                pass                pass
unit Imax           mA                  mA                  mA                  mA                  mA                  mA                  mA                  mA
Imin                pass                pass                pass                pass                pass                pass                pass                pass
unit Imin           mA                  mA                  mA                  mA                  mA                  mA                  mA                  mA
dQM                 0.000               0.000               0.000               0.000               0.000               0.000               0.000               0.000
unit dQM            mA.h                mA.h                mA.h                mA.h                mA.h                mA.h                mA.h                mA.h
record              I                   I                   I                   I                   I                   I                   I                   I
dI                  0.000               0.000               0.000               0.000               0.000               0.000               0.000               0.000
unit dI             µA                  µA                  µA                  µA                  µA                  µA                  µA                  µA
dQ                  0.000               0.000               0.000               0.000               0.000               0.000               0.000               0.000
unit dQ             mA.h                mA.h                mA.h                mA.h                mA.h                mA.h                mA.h                mA.h
dt (s)              0.5000              0.1000              0.1000              0.0050              0.0010              0.0010              0.1000              0.1000
dta (s)             0.1000              0.1000              0.1000              0.1000              0.1000              0.1000              0.1000              0.1000
E range min (V)     -10.000             -10.000             -10.000             -10.000             -10.000             -10.000             -10.000             -10.000
E range max (V)     10.000              10.000              10.000              10.000              10.000              10.000              10.000              10.000
I Range             100 mA              100 mA              100 mA              100 mA              100 mA              100 mA              100 mA              100 mA
I Range min         Unset               Unset               Unset               Unset               Unset               Unset               Unset               Unset
I Range max         Unset               Unset               Unset               Unset               Unset               Unset               Unset               Unset
I Range init        Unset               Unset               Unset               Unset               Unset               Unset               Unset               Unset
Bandwidth           5                   5                   5                   5                   5                   5                   5                   5
goto Ns'            0                   0                   0                   0                   3                   0                   0                   0
nc cycles           0                   0                   0                   0                   29                  0                   0                   0

Number of loops : 6
Loop 0 from point number 0 to 1008
Loop 1 from point number 1009 to 2017
Loop 2 from point number 2018 to 3026
Loop 3 from point number 3027 to 4035
Loop 4 from point number 4036 to 5044
Loop 5 from point number 5045 to 6053

mode	ox/red	error	control changes	Ns changes	counter inc.	Ns	time/s	control/V	Ewe/V	I/mA	dQ/C	(Q-Qo)/C	Q charge/discharge/mA.h	half cycle	Energy charge/W.h	Energy discharge/W.h	Capacitance charge/µF	Capacitance discharge/µF	Q discharge/mA.h	Q charge/mA.h	Capacity/mA.h	Efficiency/%	cycle number	P/W
2	1	0	0	0	0	0	149.812	2.54262e-05	0.000149774	0.011683	0.0000000E+000	0.0000000E+000	0.000000000000000E+000	0	0.000000000000000E+000	0.000000000000000E+000	0.000000000000000E+000	0.000000000000000E+000	0.000000000000000E+000	0.000000000000000E+000	0.000000000000000E+000	0	0.000000000000000E+000	1.74982e-09
2	0	0	1	0	0	3	152.817	-0.999851	-0.999866	-9.3235	-4.89775e-05	0.00191977	-1.36048e-05	1	1.08001e-07	1.3603e-08	2.57956e+07	1.28391e+06	1.36048e-05	0.000000000000000E+000	1.36048e-05	0	0.000000000000000E+000	0.00932225
2	1	0	0	0	0	4	152.918	2.54262e-05	6.20053e-05	0.0113011	8.04551e-08	0.0010555	2.23776e-08	2	1.4981e-15	0.000000000000000E+000	5277.67	0.000000000000000E+000	0.000000000000000E+000	2.23776e-08	2.23776e-08	0	1	7.00729e-10
2	1	0	0	1	1	4	153.022	2.54262e-05	-6.68356e-06	0.0242863	4.85726e-09	0.000179444	1.35009e-09	4	-9.02343e-18	0.000000000000000E+000	0.000000000000000E+000	0.000000000000000E+000	0.000000000000000E+000	1.35009e-09	1.35009e-09	0	2	1.62319e-10
2	0	0	1	0	0	3	153.107	-0.999851	-0.999832	-9.068	-0.000647039	-0.000467483	-0.000179733	5	2.78098e-15	1.79709e-07	2347.27	1.40981e+07	0.000179733	0.000000000000000E+000	0.000179733	0	2	0.00906648
2	0	0	1	0	1	3	153.187	-0.999851	-0.999882	-8.46113	-0.000390085	-0.00107662	-0.000108357	7	3.84814e-15	1.08342e-07	8141.48	1.13227e+07	0.000108357	0.000000000000000E+000	0.000108357	0	3	0.00846013
2	0	0	1	0	0	3	153.267	-0.999851	-0.999912	-8.44471	-0.000128253	-0.00166506	-3.56259e-05	9	1.81925e-15	3.56202e-08	1229.98	1.40087e+06	3.56259e-05	0.000000000000000E+000	3.56259e-05	0	4	0.00844397
2	1	0	0	0	0	4	153.36	2.54262e-05	8.49015e-05	0.00519046	9.33567e-08	-0.00237171	2.59347e-08	10	1.45137e-15	0.000000000000000E+000	24466.8	0.000000000000000E+000	0.000000000000000E+000	2.59347e-08	2.59347e-08	0	5	4.40678e-10
2	1	0	0	0	1	4	153.464	2.54262e-05	0.000130694	0.00633621	2.22655e-08	-0.00323833	6.20882e-09	12	5.50337e-16	0.000000000000000E+000	177.494	0.000000000000000E+000	0.000000000000000E+000	6.20882e-09	6.20882e-09	0	6	8.28104e-10
2	0	0	1	0	0	3	153.557	-0.999851	-0.999943	-8.27056	-0.00071285	-0.00395109	-0.000198014	13	3.50419e-15	1.97991e-07	1283.94	5.33436e+06	0.000198014	0.000000000000000E+000	0.000198014	0	6	0.00827008
2	0	0	1	0	1	3	153.637	-0.999851	-0.99992	-8.18233	-0.000452375	-0.00452539	-0.00012566	15	1.88639e-15	1.25638e-07	1043.55	1.58051e+06	0.00012566	0.000000000000000E+000	0.00012566	0	7	0.00818168
2	0	0	1	0	0	3	153.717	-0.999851	-0.999763	-8.09602	-0.000204306	-0.00509499	-5.67516e-05	17	3.72927e-15	5.67408e-08	1239.8	6.69469e+06	5.67516e-05	0.000000000000000E+000	5.67516e-05	0	8	0.0080941
2	1	0	0	0	0	4	153.802	2.54262e-05	3.91089e-05	0.0185575	1.28364e-07	-0.00569698	3.57007e-08	18	2.66528e-15	0.000000000000000E+000	1086.44	0.000000000000000E+000	0.000000000000000E+000	3.57007e-08	3.57007e-08	0	9	7.25766e-10
2	1	0	0	0	1	4	153.906	2.54262e-05	6.58213e-05	0.0155022	4.95271e-08	-0.0064946	1.37111e-08	20	1.17397e-15	0.000000000000000E+000	2587	0.000000000000000E+000	0.000000000000000E+000	1.37111e-08	1.37111e-08	0	10	1.02037e-09
2	0	0	1	0	0	3	154.007	-0.999851	-0.999821	-7.87107	-0.000753309	-0.00724784	-0.000209253	21	2.91851e-15	2.09223e-07	15863.8	9.86607e+06	0.000209253	0.000000000000000E+000	0.000209253	0	10	0.00786966
2	0	0	1	0	1	3	154.087	-0.999851	-0.999939	-7.8283	-0.00051145	-0.00779694	-0.000142069	23	1.88256e-15	1.42051e-07	1047.75	1.88794e+06	0.000142069	0.000000000000000E+000	0.000142069	0	11	0.00782782
2	0	0	1	0	0	3	154.167	-0.999851	-0.999821	-7.79736	-0.000274665	-0.00834373	-7.62958e-05	25	2.67665e-15	7.6283e-08	15375.4	3.78645e+06	7.62958e-05	0.000000000000000E+000	7.62958e-05	0	12	0.00779596
2	0	0	1	0	1	3	154.247	-0.999851	-0.999813	-7.79125	-4.04801e-05	-0.0088893	-1.12444e-05	27	3.31663e-15	1.12423e-08	2158.95	342309	1.12444e-05	0.000000000000000E+000	1.12444e-05	0	13	0.00778979
2	1	0	0	0	1	4	154.348	2.54262e-05	0.000191751	0.0036628	7.25877e-08	-0.00962756	2.01787e-08	28	1.88695e-15	0.000000000000000E+000	514.494	0.000000000000000E+000	0.000000000000000E+000	2.01787e-08	2.01787e-08	0	14	7.02345e-10
2	1	0	0	1	0	4	154.452	2.54262e-05	6.96374e-05	0.016648	3.32959e-09	-0.0104042	1.0348e-09	30	7.2061e-17	0.000000000000000E+000	0.000000000000000E+000	0.000000000000000E+000	0.000000000000000E+000	1.0348e-09	1.0348e-09	0	15	1.15932e-09
2	0	0	1	0	1	3	154.537	-0.999851	-0.999851	-7.71983	-0.000581961	-0.0109861	-0.000161656	31	2.21907e-15	1.61629e-07	10413	3.46599e+06	0.000161656	0.000000000000000E+000	0.000161656	0	15	0.00771868
2	0	0	1	0	0	3	154.617	-0.999851	-0.999912	-7.6889	-0.000348815	-0.0115264	-9.6893e-05	33	1.96634e-15	9.68769e-08	685.43	2.6894e+06	9.6893e-05	0.000000000000000E+000	9.6893e-05	0	16	0.00768822
2	0	0	1	0	1	3	154.697	-0.999851	-0.999897	-7.70647	-0.000117143	-0.0120662	-3.25396e-05	35	2.57619e-15	3.25369e-08	2664.25	2.04722e+06	3.25396e-05	0.000000000000000E+000	3.25396e-05	0	17	0.00770567
2	1	0	0	0	1	4	154.79	2.54262e-05	0.00013451	0.0143565	1.12376e-07	-0.0127193	3.13028e-08	36	2.4612e-15	0.000000000000000E+000	868.548	0.000000000000000E+000	0.000000000000000E+000	3.13028e-08	3.13028e-08	0	18	1.93109e-09
2	1	0	0	0	0	4	154.894	2.54262e-05	-2.86743e-06	0.0124469	2.23418e-08	-0.0134875	6.20882e-09	38	2.80335e-16	0.000000000000000E+000	5857.17	0.000000000000000E+000	0.000000000000000E+000	6.20882e-09	6.20882e-09	0	19	3.56906e-11
2	0	0	1	0	1	3	154.987	-0.999851	-0.999996	-7.65834	-0.000653066	-0.0141405	-0.000181407	39	2.48613e-15	1.81384e-07	2215.27	2.48056e+06	0.000181407	0.000000000000000E+000	0.000181407	0	19	0.00765831
2	0	0	1	0	0	3	155.067	-0.999851	-0.999969	-7.66484	-0.000423054	-0.0146769	-0.000117515	41	2.1369e-15	1.17498e-07	789.966	1.67992e+06	0.000117515	0.000000000000000E+000	0.000117515	0	20	0.0076646
2	0	0	1	0	1	3	155.147	-0.999851	-0.999771	-7.65338	-0.000192928	-0.0152127	-5.35911e-05	43	1.59665e-15	5.35848e-08	647.276	1.14902e+06	5.35911e-05	0.000000000000000E+000	5.35911e-05	0	21	0.00765163
2	1	0	0	0	1	4	155.232	2.54262e-05	9.63496e-05	0.0200852	1.11025e-07	-0.0157851	3.10441e-08	44	2.40863e-15	0.000000000000000E+000	1126.41	0.000000000000000E+000	0.000000000000000E+000	3.10441e-08	3.10441e-08	0	22	1.9352e-09
2	1	0	0	0	0	4	155.336	2.54262e-05	-6.0108e-05	0.020849	4.7312e-08	-0.0165492	1.34524e-08	46	5.61983e-17	0.000000000000000E+000	362.596	0.000000000000000E+000	0.000000000000000E+000	1.34524e-08	1.34524e-08	0	23	1.2532e-09
2	0	0	1	0	1	3	155.437	-0.999851	-0.999905	-7.63619	-0.000727027	-0.0172761	-0.000201952	47	1.73338e-15	2.01922e-07	0.000000000000000E+000	5.95581e+06	0.000201952	0.000000000000000E+000	0.000201952	0	23	0.00763546
2	0	0	1	0	0	3	155.517	-0.999851	-0.999935	-7.61786	-0.000497318	-0.01781	-0.000138144	49	3.74333e-15	1.38126e-07	761.926	1.085e+07	0.000138144	0.000000000000000E+000	0.000138144	0	24	0.00761737
2	0	0	1	0	1	3	155.597	-0.999851	-0.999931	-7.61175	-0.000267843	-0.0183427	-7.44008e-05	51	1.84738e-15	7.43907e-08	1167.98	4.1302e+06	7.44008e-05	0.000000000000000E+000	7.44008e-05	0	25	0.00761123
2	0	0	1	0	0	3	155.677	-0.999851	-0.99992	-7.58616	-3.94259e-05	-0.0188745	-1.09518e-05	53	1.13709e-15	1.09509e-08	1041.3	607968	1.09518e-05	0.000000000000000E+000	1.09518e-05	0	26	0.00758555
2	1	0	0	0	0	4	155.778	2.54262e-05	0.000111614	0.0109192	8.0226e-08	-0.0195931	2.22483e-08	54	2.11597e-15	0.000000000000000E+000	4197.74	0.000000000000000E+000	0.000000000000000E+000	2.22483e-08	2.22483e-08	0	27	1.21874e-09
2	1	0	0	1	1	4	155.882	2.54262e-05	5.43732e-05	0.0124469	2.48938e-09	-0.0203513	5.17401e-10	56	2.81328e-17	0.000000000000000E+000	0.000000000000000E+000	0.000000000000000E+000	0.000000000000000E+000	5.17401e-10	5.17401e-10	0	28	6.76776e-10
2	0	0	1	0	0	3	155.967	-0.999851	-0.999802	-7.57929	-0.000569361	-0.0209205	-0.000158156	57	2.92345e-15	1.58136e-07	2795.53	1.49254e+07	0.000158156	0.000000000000000E+000	0.000158156	0	28	0.00757778
2	0	0	1	0	1	3	156.047	-0.999851	-0.99992	-7.55103	-0.00034133	-0.0214492	-9.48138e-05	59	2.23385e-15	9.47993e-08	785.22	5.26338e+06	9.48138e-05	0.000000000000000E+000	9.48138e-05	0	29	0.00755042
2	1	0	0	0	0	5	156.115	2.54262e-05	5.43732e-05	0.00633622	3.19625e-08	-0.0218624	4.08747e-08	60	2.05071e-15	0.000000000000000E+000	6426.75	0.000000000000000E+000	0.000000000000000E+000	4.08747e-08	4.08747e-08	0	30	3.44521e-10
2	1	0	1	0	0	1	174.823	0.19994	0.199946	2.10649	0.000421207	0.000433465	0.000120407	62	2.33982e-08	0.000000000000000E+000	2168.5	0.000000000000000E+000	0.000000000000000E+000	0.000120407	0.000120407	0	31	0.000421186
2	0	0	1	0	0	3	176.653	-0.999851	-0.999817	-10.0152	-0.000305825	0.00182133	-8.49514e-05	63	1.16794e-07	8.49386e-08	4.6452e+07	3.48566e+06	8.49514e-05	0.000000000000000E+000	8.49514e-05	0	31	0.0100133
2	0	0	1	1	1	3	176.733	-0.999851	-0.999767	-9.81197	-1.96239e-06	0.00112706	-5.45115e-07	65	2.42352e-15	5.44988e-10	4493.22	0.000000000000000E+000	5.45115e-07	0.000000000000000E+000	5.45115e-07	0	32	0.00980969
2	1	0	0	0	1	4	176.838	2.54262e-05	-2.86743e-06	0.020849	5.73146e-08	0.000157754	1.59222e-08	66	5.08309e-16	0.000000000000000E+000	834.49	0.000000000000000E+000	0.000000000000000E+000	1.59222e-08	1.59222e-08	0	33	5.97832e-11
2	0	0	1	0	0	3	176.943	-0.999851	-0.999912	-9.37391	-0.000947659	-0.000789849	-0.000263239	67	1.70488e-15	2.63209e-07	1552.44	4.14039e+07	0.000263239	0.000000000000000E+000	0.000263239	0	33	0.00937309
2	0	0	1	0	1	3	177.023	-0.999851	-0.999924	-9.27576	-0.00065423	-0.00144397	-0.000181731	69	2.50538e-15	1.81709e-07	2271.58	8.16679e+06	0.000181731	0.000000000000000E+000	0.000181731	0	34	0.00927505
2	0	0	1	0	0	3	177.103	-0.999851	-0.999912	-9.12567	-0.000368393	-0.00208765	-0.000102331	71	1.13572e-15	1.02324e-07	3443.46	5.35581e+06	0.000102331	0.000000000000000E+000	0.000102331	0	35	0.00912487
2	0	0	1	0	1	3	177.183	-0.999851	-0.99987	-8.9771	-9.15523e-05	-0.00272087	-2.54312e-05	73	2.50517e-15	2.54276e-08	2168.02	999344	2.54312e-05	0.000000000000000E+000	2.54312e-05	0	36	0.00897594
2	1	0	0	0	1	4	177.28	2.54262e-05	-3.72119e-05	0.0197033	9.03814e-08	-0.00351884	2.5094e-08	74	1.07494e-15	0.000000000000000E+000	5918.3	0.000000000000000E+000	0.000000000000000E+000	2.5094e-08	2.5094e-08	0	37	7.33196e-10
2	1	0	0	0	0	4	177.384	2.54262e-05	9.25336e-05	0.00939155	9.43665e-09	-0.0043907	2.71636e-09	76	2.0693e-16	0.000000000000000E+000	170.838	0.000000000000000E+000	0.000000000000000E+000	2.71636e-09	2.71636e-09	0	38	8.69034e-10
2	0	0	1	0	1	3	177.473	-0.999851	-0.999771	-8.53981	-0.000687768	-0.00507837	-0.000191047	77	1.21126e-15	1.91022e-07	1633.81	7.21177e+06	0.000191047	0.000000000000000E+000	0.000191047	0	38	0.00853785
2	0	0	1	0	0	3	177.553	-0.999851	-0.999962	-8.43058	-0.000424782	-0.00567162	-0.000117995	79	1.06576e-15	1.17986e-07	1453.24	4.45417e+06	0.000117995	0.000000000000000E+000	0.000117995	0	39	0.00843026
2	0	0	1	0	1	3	177.633	-0.999851	-0.999958	-8.37291	-0.000169406	-0.00625984	-4.70573e-05	81	1.49111e-15	4.70539e-08	1165.57	2.77555e+06	4.70573e-05	0.000000000000000E+000	4.70573e-05	0	40	0.00837256
2	1	0	0	0	1	4	177.722	2.54262e-05	8.5808e-06	0.0143565	1.08553e-07	-0.00692631	3.01386e-08	82	-4.78837e-16	0.000000000000000E+000	1777.03	0.000000000000000E+000	0.000000000000000E+000	3.01386e-08	3.01386e-08	0	41	1.2319e-10
2	1	0	0	0	0	4	177.826	2.54262e-05	5.05572e-05	0.00710006	3.44832e-08	-0.00775741	9.57193e-09	84	-3.34963e-16	0.000000000000000E+000	9029.81	0.000000000000000E+000	0.000000000000000E+000	9.57193e-09	9.57193e-09	0	42	3.58959e-10
2	0	0	1	0	1	3	177.923	-0.999851	-0.999794	-8.26445	-0.000746356	-0.00850368	-0.000207321	85	1.00765e-16	2.07295e-07	3443.89	6.98761e+06	0.000207321	0.000000000000000E+000	0.000207321	0	42	0.00826274
2	0	0	1	0	0	3	178.003	-0.999851	-0.999981	-8.23466	-0.000495842	-0.00908029	-0.000137734	87	1.57493e-15	1.37719e-07	654.51	6.55027e+07	0.000137734	0.000000000000000E+000	0.000137734	0	43	0.0082345
2	0	0	1	0	1	3	178.083	-0.999851	-0.999943	-8.20716	-0.000247881	-0.00965603	-6.88558e-05	89	9.02127e-16	6.8849e-08	1695.54	3.6069e+06	6.88558e-05	0.000000000000000E+000	6.88558e-05	0	44	0.00820669
2	0	0	1	1	0	3	178.163	-0.999851	-0.999916	-8.14071	-1.62814e-06	-0.0102292	-4.52209e-07	91	1.72153e-15	4.52171e-10	1830.41	0.000000000000000E+000	4.52209e-07	0.000000000000000E+000	4.52209e-07	0	45	0.00814002
2	1	0	0	0	0	4	178.268	2.54262e-05	2.7661e-05	0.016648	6.02172e-08	-0.0110437	1.68155e-08	92	5.03634e-16	0.000000000000000E+000	1762.61	0.000000000000000E+000	0.000000000000000E+000	1.68155e-08	1.68155e-08	0	46	4.60499e-10
2	0	0	1	0	1	3	178.373	-0.999851	-0.999927	-8.14491	-0.000815246	-0.0118589	-0.000226457	93	4.06803e-16	2.26428e-07	2346.67	1.07697e+08	0.000226457	0.000000000000000E+000	0.000226457	0	46	0.00814431
2	0	0	1	0	0	3	178.453	-0.999851	-1.00005	-8.11894	-0.000570941	-0.0124297	-0.000158595	95	9.54449e-16	1.58579e-07	32217	2.93468e+06	0.000158595	0.000000000000000E+000	0.000158595	0	47	0.00811934
2	0	0	1	0	1	3	178.533	-0.999851	-0.999905	-8.23275	-0.000331906	-0.0130046	-9.2196e-05	97	1.58248e-16	9.21839e-08	6931.18	6.69285e+06	9.2196e-05	0.000000000000000E+000	9.2196e-05	0	48	0.00823196
2	0	0	1	0	0	3	178.613	-0.999851	-0.999969	-8.21365	-8.38335e-05	-0.0135807	-2.32872e-05	99	8.77932e-16	2.32862e-08	11226.5	4.38162e+06	2.32872e-05	0.000000000000000E+000	2.32872e-05	0	49	0.0082134
2	1	0	0	0	0	4	178.71	2.54262e-05	8.49015e-05	0.00748197	8.32777e-08	-0.0143188	2.32831e-08	100	1.17811e-15	0.000000000000000E+000	2196.49	0.000000000000000E+000	0.000000000000000E+000	2.32831e-08	2.32831e-08	0	50	6.3523e-10
2	1	0	0	0	1	4	178.814	2.54262e-05	8.10853e-05	0.00977346	1.47071e-08	-0.0151395	4.13921e-09	102	3.29706e-16	0.000000000000000E+000	1952.47	0.000000000000000E+000	0.000000000000000E+000	4.13921e-09	4.13921e-09	0	51	7.92484e-10
2	0	0	1	0	0	3	178.903	-0.999851	-0.99995	-8.19608	-0.000656893	-0.0157963	-0.00018247	103	1.08206e-15	1.82455e-07	984.091	5.71028e+07	0.00018247	0.000000000000000E+000	0.00018247	0	51	0.00819567
2	0	0	1	0	1	3	178.983	-0.999851	-0.999878	-8.1724	-0.000410508	-0.0163688	-0.00011403	105	1.35034e-15	1.14017e-07	2440.55	3.58706e+07	0.00011403	0.000000000000000E+000	0.00011403	0	52	0.0081714
2	0	0	1	0	0	3	179.063	-0.999851	-0.999977	-8.18272	-0.000165264	-0.0169413	-4.59064e-05	107	1.03689e-15	4.5906e-08	2115.14	6.18896e+06	4.59064e-05	0.000000000000000E+000	4.59064e-05	0	53	0.00818253
2	1	0	0	0	0	4	179.152	2.54262e-05	6.20051e-05	0.0177937	1.12525e-07	-0.0175934	3.10441e-08	108	1.18449e-15	0.000000000000000E+000	1126.4	0.000000000000000E+000	0.000000000000000E+000	3.10441e-08	3.10441e-08	0	54	1.1033e-09
2	1	0	0	0	1	4	179.256	2.54262e-05	-2.19476e-05	0.0265778	4.46422e-08	-0.0184081	1.24176e-08	110	7.06776e-16	0.000000000000000E+000	433.876	0.000000000000000E+000	0.000000000000000E+000	1.24176e-08	1.24176e-08	0	55	5.8332e-10
2	0	0	1	0	0	3	179.353	-0.999851	-0.999809	-8.11932	-0.000733295	-0.0191414	-0.000203693	111	7.59461e-16	2.0367e-07	2665.84	2.39818e+07	0.000203693	0.000000000000000E+000	0.000203693	0	55	0.00811777
2	0	0	1	0	1	3	179.433	-0.999851	-0.999931	-8.07883	-0.000487601	-0.0197084	-0.000135445	113	1.05912e-15	1.35432e-07	2573.67	6.72746e+06	0.000135445	0.000000000000000E+000	0.000135445	0	56	0.00807828
2	0	0	1	0	0	3	179.513	-0.999851	-0.999893	-8.06165	-0.000243862	-0.0202738	-6.77392e-05	115	1.18545e-15	6.77307e-08	711.826	3.04413e+06	6.77392e-05	0.000000000000000E+000	6.77392e-05	0	57	0.00806079
2	0	0	1	1	1	3	179.593	-0.999851	-0.999802	-8.01773	-1.60355e-06	-0.0208383	-4.45483e-07	117	2.07889e-15	4.45394e-10	1837.59	0.000000000000000E+000	4.45483e-07	0.000000000000000E+000	4.45483e-07	0	58	0.00801614
2	1	0	0	0	1	4	179.698	2.54262e-05	0.00011543	0.000225551	5.32663e-08	-0.0216408	1.44872e-08	118	6.98868e-16	0.000000000000000E+000	1138.92	0.000000000000000E+000	0.000000000000000E+000	1.44872e-08	1.44872e-08	0	59	2.60353e-11
2	0	0	1	0	0	3	179.803	-0.999851	-0.999847	-8.01353	-0.000801322	-0.0224421	-0.000222589	119	2.49748e-15	2.22565e-07	2440.55	7.00205e+07	0.000222589	0.000000000000000E+000	0.000222589	0	59	0.0080123
2	0	0	1	0	1	3	179.883	-0.999851	-0.999863	-8.00933	-0.000561643	-0.0230036	-0.000156012	121	4.53927e-16	1.55993e-07	5531.92	7.74902e+06	0.000156012	0.000000000000000E+000	0.000156012	0	60	0.00800822
2	1	0	0	0	0	5	179.931	2.54262e-05	3.5293e-05	0.00786389	9.92382e-08	-0.0232418	6.571e-08	122	2.93907e-15	0.000000000000000E+000	12398	0.000000000000000E+000	0.000000000000000E+000	6.571e-08	6.571e-08	0	61	2.7754e-10
2	1	0	1	0	0	1	199.134	0.19994	0.200034	1.75781	0.00123004	0.00124386	0.000345517	124	6.83483e-08	0.000000000000000E+000	6222.32	0.000000000000000E+000	0.000000000000000E+000	0.000345517	0.000345517	0	62	0.000351621
2	0	0	1	0	0	3	200.489	-0.999851	-0.99984	-8.73115	-0.00048409	0.00129824	-0.000134469	125	9.74964e-08	1.34453e-07	4.6707e+08	1.26901e+08	0.000134469	0.000000000000000E+000	0.000134469	0	62	0.00872975
2	0	0	1	0	1	3	200.569	-0.999851	-0.999885	-8.58716	-0.000217249	0.00069263	-6.03468e-05	127	1.96258e-15	6.03414e-08	1922.78	2.71192e+06	6.03468e-05	0.000000000000000E+000	6.03468e-05	0	63	0.00858618
2	1	0	0	0	1	4	200.653	2.54262e-05	7.34534e-05	0.0219948	1.36232e-07	4.20455e-05	3.78421e-08	128	2.22299e-15	0.000000000000000E+000	939.465	0.000000000000000E+000	0.000000000000000E+000	3.78421e-08	3.78421e-08	0	64	1.61559e-09
2	1	0	0	0	0	4	200.758	2.54262e-05	-0.000186037	0.0292512	6.54912e-08	-0.00091319	1.81899e-08	130	-8.45692e-16	0.000000000000000E+000	408.574	0.000000000000000E+000	0.000000000000000E+000	1.81899e-08	1.81899e-08	0	65	5.44182e-09
2	0	0	1	0	1	3	200.859	-0.999851	-0.999882	-9.44648	-0.000908208	-0.00182131	-0.00025228	131	-8.06946e-17	2.52255e-07	1087.01	1.25203e+07	0.00025228	0.000000000000000E+000	0.00025228	0	65	0.00944536
2	0	0	1	0	0	3	200.939	-0.999851	-0.999775	-9.26583	-0.000610085	-0.00247656	-0.000169468	133	3.18377e-15	1.69448e-07	4384.26	3.01577e+06	0.000169468	0.000000000000000E+000	0.000169468	0	66	0.00926374
2	0	0	1	0	1	3	201.019	-0.999851	-0.999912	-8.91561	-0.000316402	-0.00311261	-8.78896e-05	135	1.31013e-15	8.78772e-08	3691.31	6.91192e+06	8.78896e-05	0.000000000000000E+000	8.78896e-05	0	67	0.00891483
2	0	0	1	0	0	3	201.099	-0.999851	-0.999931	-8.40575	-4.38637e-05	-0.00372105	-1.21844e-05	137	1.27741e-15	1.21834e-08	3898.76	212875	1.21844e-05	0.000000000000000E+000	1.21844e-05	0	68	0.00840518
2	1	0	0	0	0	4	201.2	2.54262e-05	4.29251e-05	0.0143565	8.52673e-08	-0.00449534	2.36711e-08	138	9.81038e-16	0.000000000000000E+000	22330.9	0.000000000000000E+000	0.000000000000000E+000	2.36711e-08	2.36711e-08	0	69	6.16252e-10
2	1	0	0	1	1	4	201.304	2.54262e-05	0.000168854	0.0116831	2.33661e-09	-0.00528879	6.46752e-10	140	1.09207e-16	0.000000000000000E+000	0.000000000000000E+000	0.000000000000000E+000	0.000000000000000E+000	6.46752e-10	6.46752e-10	0	70	1.97274e-09
2	0	0	1	0	0	3	201.389	-0.999851	-0.999805	-7.80156	-0.000589389	-0.00587806	-0.000163719	141	2.58915e-15	1.63694e-07	1206.71	2.20721e+07	0.000163719	0.000000000000000E+000	0.000163719	0	70	0.00780004
2	0	0	1	0	1	3	201.469	-0.999851	-0.999813	-7.7416	-0.000350695	-0.00642194	-9.74152e-05	143	3.28079e-15	9.74039e-08	2182.13	3.2833e+06	9.74152e-05	0.000000000000000E+000	9.74152e-05	0	71	0.00774015
2	0	0	1	0	0	3	201.549	-0.999851	-0.999832	-7.68966	-0.00011702	-0.0069623	-3.25055e-05	145	2.31381e-15	3.25001e-08	894.867	958626	3.25055e-05	0.000000000000000E+000	3.25055e-05	0	72	0.00768837
2	1	0	0	0	0	4	201.642	2.54262e-05	4.76468e-06	0.0139746	1.19403e-07	-0.00761268	3.3243e-08	146	-6.83701e-16	0.000000000000000E+000	2090.74	0.000000000000000E+000	0.000000000000000E+000	3.3243e-08	3.3243e-08	0	73	6.65842e-11
2	1	0	0	0	1	4	201.746	2.54262e-05	-0.000132613	0.0319246	3.32646e-08	-0.00837535	9.31323e-09	148	-3.07073e-16	0.000000000000000E+000	488.11	0.000000000000000E+000	0.000000000000000E+000	9.31323e-09	9.31323e-09	0	74	4.23361e-09
2	0	0	1	0	0	3	201.839	-0.999851	-0.999897	-7.59686	-0.00064826	-0.0090235	-0.000180072	149	1.12644e-15	1.80054e-07	3111.69	1.21384e+07	0.000180072	0.000000000000000E+000	0.000180072	0	74	0.00759607
2	0	0	1	0	1	3	201.919	-0.999851	-0.999859	-7.54339	-0.000417169	-0.00955292	-0.000115881	151	2.73167e-15	1.15869e-07	2089.72	2.18649e+06	0.000115881	0.000000000000000E+000	0.000115881	0	75	0.00754232
2	0	0	1	0	0	3	201.999	-0.999851	-0.999916	-7.52544	-0.000189478	-0.0100796	-5.26327e-05	153	1.29555e-15	5.26264e-08	0.000000000000000E+000	2.61423e+06	5.26327e-05	0.000000000000000E+000	5.26327e-05	0	76	0.00752481
2	1	0	0	0	0	4	202.083	2.54262e-05	2.76609e-05	0.0139746	1.42877e-07	-0.0106408	3.95812e-08	154	1.80663e-15	0.000000000000000E+000	1965.28	0.000000000000000E+000	0.000000000000000E+000	3.95812e-08	3.95812e-08	0	77	3.86548e-10
2	1	0	0	0	1	4	202.188	2.54262e-05	4.67412e-05	0.0204671	5.4492e-08	-0.0113889	1.52633e-08	156	7.68709e-16	0.000000000000000E+000	1599.91	0.000000000000000E+000	0.000000000000000E+000	1.52633e-08	1.52633e-08	0	78	9.56658e-10
2	0	0	1	0	0	3	202.289	-0.999851	-0.999931	-7.44371	-0.000710254	-0.0120991	-0.000197293	157	2.86791e-15	1.9727e-07	2163.95	9.79941e+06	0.000197293	0.000000000000000E+000	0.000197293	0	78	0.0074432
2	0	0	1	0	1	3	202.369	-0.999851	-1.00002	-7.43416	-0.000485433	-0.0126201	-0.000134843	159	2.21633e-15	1.34826e-07	2196.49	3.18134e+06	0.000134843	0.000000000000000E+000	0.000134843	0	79	0.00743433
2	0	0	1	0	0	3	202.449	-0.999851	-0.999901	-7.41506	-0.000261636	-0.0131406	-7.26768e-05	161	1.45249e-15	7.26678e-08	16839.7	6.85864e+06	7.26768e-05	0.000000000000000E+000	7.26768e-05	0	80	0.00741433
2	0	0	1	0	1	3	202.529	-0.999851	-0.999828	-7.39635	-3.84968e-05	-0.0136598	-1.06937e-05	163	2.14796e-15	1.06918e-08	976.219	776292	1.06937e-05	0.000000000000000E+000	1.06937e-05	0	81	0.00739508
2	1	0	0	0	1	4	202.63	2.54262e-05	6.58213e-05	0.0109192	7.41153e-08	-0.0143613	2.06961e-08	164	1.8983e-15	0.000000000000000E+000	1301.63	0.000000000000000E+000	0.000000000000000E+000	2.06961e-08	2.06961e-08	0	82	7.18716e-10
2	1	0	0	1	0	4	202.734	2.54262e-05	-6.774e-05	0.0139746	2.79491e-09	-0.0150999	7.76102e-10	166	-5.25732e-17	0.000000000000000E+000	0.000000000000000E+000	0.000000000000000E+000	0.000000000000000E+000	7.76102e-10	7.76102e-10	0	83	9.46636e-10
2	0	0	1	0	1	3	202.819	-0.999851	-0.999916	-7.3551	-0.000554443	-0.0156542	-0.000154012	167	1.36781e-15	1.53994e-07	2586.97	5.59014e+06	0.000154012	0.000000000000000E+000	0.000154012	0	83	0.00735448
2	0	0	1	0	0	3	202.899	-0.999851	-0.999859	-7.36656	-0.000332739	-0.0161694	-9.24276e-05	169	1.83553e-15	9.24126e-08	16351.6	3.79242e+06	9.24276e-05	0.000000000000000E+000	9.24276e-05	0	84	0.00736552
2	0	0	1	0	1	3	202.979	-0.999851	-0.999786	-7.36389	-0.000111757	-0.0166843	-3.10431e-05	171	6.38027e-16	3.10387e-08	1619.64	1.54189e+06	3.10431e-05	0.000000000000000E+000	3.10431e-05	0	85	0.00736231
2	1	0	0	0	1	4	203.072	2.54262e-05	6.58214e-05	0.000989387	1.08786e-07	-0.0173074	3.00093e-08	172	-1.35411e-16	0.000000000000000E+000	1132.41	0.000000000000000E+000	0.000000000000000E+000	3.00093e-08	3.00093e-08	0	86	6.51229e-11
2	1	0	0	0	0	4	203.176	2.54262e-05	-5.24759e-05	0.016266	3.35702e-08	-0.0180419	9.31323e-09	174	-4.64491e-17	0.000000000000000E+000	274.562	0.000000000000000E+000	0.000000000000000E+000	9.31323e-09	9.31323e-09	0	87	8.53576e-10
2	0	0	1	0	1	3	203.269	-0.999851	-0.999771	-7.34097	-0.000625396	-0.0186672	-0.000173721	175	1.27132e-15	1.73697e-07	1686.2	1.63688e+07	0.000173721	0.000000000000000E+000	0.000173721	0	87	0.00733929
2	0	0	1	0	0	3	203.349	-0.999851	-0.999958	-7.3192	-0.000404351	-0.0191799	-0.00011232	177	2.10258e-15	1.12306e-07	918.794	4.41659e+06	0.00011232	0.000000000000000E+000	0.00011232	0	88	0.00731889
2	0	0	1	0	1	3	203.429	-0.999851	-0.999901	-7.30851	-0.000184094	-0.0196915	-5.11374e-05	179	2.72253e-15	5.11306e-08	1004.11	6.03241e+06	5.11374e-05	0.000000000000000E+000	5.11374e-05	0	89	0.00730778
2	1	0	0	0	1	4	203.513	2.54262e-05	3.14768e-05	0.0151203	1.33482e-07	-0.0202372	3.72529e-08	180	2.38096e-15	0.000000000000000E+000	2196.49	0.000000000000000E+000	0.000000000000000E+000	3.72529e-08	3.72529e-08	0	90	4.75939e-10
2	1	0	0	0	0	4	203.618	2.54262e-05	0.000176486	0.0158841	4.82286e-08	-0.020967	1.34524e-08	182	1.2606e-15	0.000000000000000E+000	634.542	0.000000000000000E+000	0.000000000000000E+000	1.34524e-08	1.34524e-08	0	91	2.80333e-09
2	0	0	1	0	1	3	203.719	-0.999851	-0.999966	-7.2917	-0.000694519	-0.0216614	-0.000192922	183	2.29066e-15	1.92899e-07	29775.2	6.0688e+07	0.000192922	0.000000000000000E+000	0.000192922	0	91	0.00729145
2	1	0	1	0	0	6	203.944	0.19994	0.199965	1.37169	0.000274662	-0.0214214	7.63679e-05	184	1.52611e-08	0.000000000000000E+000	1374.97	0.000000000000000E+000	0.000000000000000E+000	7.63679e-05	7.63679e-05	0	92	0.00027429
2	1	0	0	0	0	2	223.344	2.54262e-05	-2.19476e-05	0.0174118	1.26505e-06	0.0018748	0.000520777	186	1.03436e-07	0.000000000000000E+000	4.91294e+07	0.000000000000000E+000	0.000000000000000E+000	0.000520777	0.000520777	0	93	3.82148e-10
2	0	0	1	0	0	3	224.324	-0.999851	-0.999828	-9.54959	-0.000772031	0.00111368	-0.000214453	187	1.03436e-07	2.1442e-07	1.90059e+07	1.83985e+07	0.000214453	0.000000000000000E+000	0.000214453	0	93	0.00954795
2	0	0	1	0	1	3	224.404	-0.999851	-0.999943	-9.40981	-0.000474445	0.000450801	-0.00013179	189	1.92268e-15	1.31775e-07	2167.07	4.7807e+06	0.00013179	0.000000000000000E+000	0.00013179	0	94	0.00940927
2	0	0	1	0	0	3	224.484	-0.999851	-0.99987	-9.2792	-0.000187649	-0.000202824	-5.21248e-05	191	1.3772e-15	5.21206e-08	1669.51	4.91911e+07	5.21248e-05	0.000000000000000E+000	5.21248e-05	0	95	0.00927799
2	1	0	0	0	0	4	224.573	2.54262e-05	0.000111614	0.0105373	8.51037e-08	-0.000939714	2.36388e-08	192	2.04689e-15	0.000000000000000E+000	1592.89	0.000000000000000E+000	0.000000000000000E+000	2.36388e-08	2.36388e-08	0	96	1.17611e-09
2	1	0	0	0	1	4	224.677	2.54262e-05	4.29251e-05	0.0319246	3.96772e-08	-0.00184664	1.10271e-08	194	6.67574e-16	0.000000000000000E+000	743.061	0.000000000000000E+000	0.000000000000000E+000	1.10271e-08	1.10271e-08	0	97	1.37037e-09
2	0	0	1	0	0	3	224.774	-0.999851	-0.999805	-9.86162	-0.00089479	-0.00274135	-0.000248553	195	3.13998e-15	2.48508e-07	2753.24	3.35091e+07	0.000248553	0.000000000000000E+000	0.000248553	0	97	0.0098597
2	0	0	1	0	1	3	224.854	-0.999851	-0.999966	-9.7226	-0.000589057	-0.00342669	-0.000163627	197	2.17539e-15	1.63606e-07	10494.2	7.72089e+07	0.000163627	0.000000000000000E+000	0.000163627	0	98	0.00972227
2	0	0	1	0	0	3	224.934	-0.999851	-0.999943	-9.58893	-0.000290621	-0.00410284	-8.07281e-05	199	1.94266e-15	8.07186e-08	3721.84	1.90461e+07	8.07281e-05	0.000000000000000E+000	8.07281e-05	0	99	0.00958838
2	0	0	1	1	1	3	225.014	-0.999851	-0.999786	-9.39148	-1.8783e-06	-0.00476806	-5.21799e-07	201	3.12684e-15	5.21688e-10	803.945	0.000000000000000E+000	5.21799e-07	0.000000000000000E+000	5.21799e-07	0	100	0.00938947
2	1	0	0	0	1	4	225.119	2.54262e-05	-1.81315e-05	0.0265778	4.8836e-08	-0.00569413	1.35818e-08	202	1.08944e-15	0.000000000000000E+000	376.849	0.000000000000000E+000	0.000000000000000E+000	1.35818e-08	1.35818e-08	0	101	4.81895e-10
2	0	0	1	0	0	3	225.224	-0.999851	-0.999794	-8.73573	-0.000890751	-0.00658482	-0.000247431	203	1.70067e-15	2.47404e-07	2356.07	5.1854e+06	0.000247431	0.000000000000000E+000	0.000247431	0	101	0.00873393
2	0	0	1	0	1	3	225.304	-0.999851	-0.999828	-8.65591	-0.000608926	-0.00719364	-0.000169146	205	2.06793e-15	1.69127e-07	1511.78	3.18258e+07	0.000169146	0.000000000000000E+000	0.000169146	0	102	0.00865442
2	0	0	1	0	0	3	225.384	-0.999851	-0.999855	-8.51345	-0.000344607	-0.00779453	-9.57242e-05	207	1.86899e-15	9.57115e-08	1205.63	1.12921e+07	9.57242e-05	0.000000000000000E+000	9.57242e-05	0	103	0.00851222
2	0	0	1	0	1	3	225.464	-0.999851	-0.99995	-8.11512	-8.29649e-05	-0.00837353	-2.30458e-05	209	2.16724e-15	2.30434e-08	0.000000000000000E+000	1.20827e+06	2.30458e-05	0.000000000000000E+000	2.30458e-05	0	104	0.00811471
2	1	0	0	0	1	4	225.561	2.54262e-05	4.76468e-06	0.00939155	8.00696e-08	-0.00908934	2.22483e-08	210	9.83637e-16	0.000000000000000E+000	6996.25	0.000000000000000E+000	0.000000000000000E+000	2.22483e-08	2.22483e-08	0	105	4.47477e-11
2	1	0	0	0	0	4	225.665	2.54262e-05	4.76468e-06	0.0135926	1.69222e-08	-0.00986278	4.65661e-09	212	1.03407e-17	0.000000000000000E+000	1098.24	0.000000000000000E+000	0.000000000000000E+000	4.65661e-09	4.65661e-09	0	106	6.47645e-11
2	0	0	1	0	1	3	225.754	-0.999851	-0.99987	-7.54339	-0.000609046	-0.0104717	-0.000169179	213	1.16917e-15	1.69163e-07	5287.87	2.66096e+07	0.000169179	0.000000000000000E+000	0.000169179	0	106	0.00754241
2	0	0	1	0	0	3	225.834	-0.999851	-0.999878	-7.49832	-0.0003771	-0.0109981	-0.00010475	215	1.89036e-15	1.04738e-07	1607.89	377.095	0.00010475	0.000000000000000E+000	0.00010475	0	107	0.00749741
2	0	0	1	0	1	3	225.914	-0.999851	-0.999935	-7.47732	-0.000150811	-0.0115215	-4.18917e-05	217	1.4836e-15	4.18882e-08	2603.25	693388	4.18917e-05	0.000000000000000E+000	4.18917e-05	0	108	0.00747683
2	1	0	0	0	1	4	226.003	2.54262e-05	9.48695e-07	0.00862772	9.91583e-08	-0.0121167	2.7681e-08	218	1.20301e-15	0.000000000000000E+000	2176.15	0.000000000000000E+000	0.000000000000000E+000	2.7681e-08	2.7681e-08	0	109	8.18507e-12
2	1	0	0	0	0	4	226.107	2.54262e-05	0.000142142	0.00442664	3.55526e-08	-0.0128592	9.83063e-09	220	8.88931e-16	0.000000000000000E+000	309.136	0.000000000000000E+000	0.000000000000000E+000	9.83063e-09	9.83063e-09	0	110	6.29212e-10
2	0	0	1	0	1	3	226.204	-0.999851	-1.00001	-7.36503	-0.00066594	-0.0135251	-0.000184983	221	2.39998e-15	1.84961e-07	15741.5	4.47621e+06	0.000184983	0.000000000000000E+000	0.000184983	0	110	0.00736512
2	0	0	1	0	0	3	226.284	-0.999851	-0.999893	-7.36465	-0.000443194	-0.0140403	-0.00012311	223	2.13665e-15	1.23096e-07	607.646	1.84368e+06	0.00012311	0.000000000000000E+000	0.00012311	0	111	0.00736386
2	0	0	1	0	1	3	226.364	-0.999851	-0.999882	-7.33295	-0.000221714	-0.0145547	-6.15873e-05	225	6.72141e-16	6.15783e-08	8785.99	7.25097e+06	6.15873e-05	0.000000000000000E+000	6.15873e-05	0	112	0.00733208
2	0	0	1	1	0	3	226.444	-0.999851	-0.999985	-7.25542	-1.45108e-06	-0.0150671	-4.03314e-07	227	4.90226e-16	4.03308e-10	667.082	0.000000000000000E+000	4.03314e-07	0.000000000000000E+000	4.03314e-07	0	113	0.00725531
2	1	0	0	0	0	4	226.549	2.54262e-05	2.76609e-05	0.00862772	7.19802e-08	-0.0157962	2.01787e-08	228	8.2668e-16	0.000000000000000E+000	865.285	0.000000000000000E+000	0.000000000000000E+000	2.01787e-08	2.01787e-08	0	114	2.3865e-10
2	0	0	1	0	1	3	226.654	-0.999851	-0.999802	-7.27757	-0.000729166	-0.0165253	-0.000202546	229	6.70611e-16	2.02517e-07	2475.41	9.55732e+07	0.000202546	0.000000000000000E+000	0.000202546	0	114	0.00727613
2	0	0	1	0	0	3	226.734	-0.999851	-0.999969	-8.21327	-0.000517658	-0.0170429	-0.000143794	231	2.21613e-15	1.43781e-07	1769.4	3.23097e+06	0.000143794	0.000000000000000E+000	0.000143794	0	115	0.00821302
2	0	0	1	0	1	3	226.814	-0.999851	-0.999912	-7.44103	-0.000301215	-0.0175739	-8.36711e-05	233	1.9392e-15	8.36607e-08	3965.89	1.71598e+06	8.36711e-05	0.000000000000000E+000	8.36711e-05	0	116	0.00744038
2	0	0	1	0	0	3	226.894	-0.999851	-0.999885	-7.42461	-7.57511e-05	-0.0180939	-2.10422e-05	235	1.84492e-15	2.10389e-08	894.868	762849	2.10422e-05	0.000000000000000E+000	2.10422e-05	0	117	0.00742376
2	1	0	0	0	0	4	226.991	2.54262e-05	2.00287e-05	0.00786388	8.32013e-08	-0.0187585	2.32831e-08	236	1.49896e-15	0.000000000000000E+000	578.024	0.000000000000000E+000	0.000000000000000E+000	2.32831e-08	2.32831e-08	0	118	1.57504e-10
2	1	0	0	0	1	4	227.095	2.54262e-05	-2.19476e-05	0.0132107	1.05824e-08	-0.0194956	2.58701e-09	238	-3.30856e-17	0.000000000000000E+000	203.379	0.000000000000000E+000	0.000000000000000E+000	2.58701e-09	2.58701e-09	0	119	2.89944e-10
2	0	0	1	0	0	3	227.184	-0.999851	-0.999832	-7.34594	-0.000589827	-0.0200853	-0.000163841	239	8.87821e-16	1.63819e-07	1060.38	3.86549e+07	0.000163841	0.000000000000000E+000	0.000163841	0	119	0.0073447
2	0	0	1	0	1	3	227.264	-0.999851	-0.999897	-7.3383	-0.000368341	-0.020599	-0.000102317	241	2.92742e-15	1.02304e-07	1491.44	9.65581e+07	0.000102317	0.000000000000000E+000	0.000102317	0	120	0.00733754
2	0	0	1	0	0	3	227.344	-0.999851	-0.99995	-7.31156	-0.000147771	-0.0211115	-4.10475e-05	243	1.44806e-15	4.10437e-08	2928.66	1.07604e+06	4.10475e-05	0.000000000000000E+000	4.10475e-05	0	121	0.0073112
2	1	0	0	0	0	4	227.433	2.54262e-05	9.63497e-05	0.0124469	1.11685e-07	-0.0216944	3.10441e-08	244	1.03246e-15	0.000000000000000E+000	1273.33	0.000000000000000E+000	0.000000000000000E+000	3.10441e-08	3.10441e-08	0	122	1.19925e-09
2	1	0	0	0	1	4	227.537	2.54262e-05	0.000187935	0.0101554	4.17396e-08	-0.0224236	1.13828e-08	246	8.38081e-16	0.000000000000000E+000	488.109	0.000000000000000E+000	0.000000000000000E+000	1.13828e-08	1.13828e-08	0	123	1.90855e-09
2	1	0	1	0	0	6	228.254	0.19994	0.200076	1.37589	0.000958569	-0.0214649	0.000266332	246	5.32638e-08	0.000000000000000E+000	4794.66	0.000000000000000E+000	0.000000000000000E+000	0.000266332	0.000266332	0	123	0.000275282
2	1	0	0	0	0	2	247.655	2.54262e-05	8.49015e-05	0.0147384	8.16983e-06	0.00173782	0.000482727	248	9.53304e-08	0.000000000000000E+000	1.1385e+08	0.000000000000000E+000	0.000000000000000E+000	0.000482727	0.000482727	0	124	1.25131e-09
2	1	0	0	1	0	4	248.155	2.54262e-05	3.5293e-05	0.0139745	2.79491e-09	0.000810996	7.76102e-10	250	2.73909e-17	0.000000000000000E+000	0.000000000000000E+000	0.000000000000000E+000	0.000000000000000E+000	7.76102e-10	7.76102e-10	0	125	4.93203e-10
2	0	0	1	0	1	3	248.24	-0.999851	-0.999855	-9.14973	-0.000688484	0.000122632	-0.000191245	251	1.00417e-15	1.91217e-07	2146.66	1.06166e+07	0.000191245	0.000000000000000E+000	0.000191245	0	125	0.0091484
2	0	0	1	0	0	3	248.32	-0.999851	-0.999973	-9.32083	-0.000418587	-0.000524818	-0.000116274	253	1.83396e-15	1.16262e-07	1362.99	6.85813e+06	0.000116274	0.000000000000000E+000	0.000116274	0	126	0.00932058
2	0	0	1	0	1	3	248.4	-0.999851	-0.999946	-9.19976	-0.000139921	-0.00117595	-3.8867e-05	255	3.19885e-15	3.88608e-08	1019.09	5.23992e+06	3.8867e-05	0.000000000000000E+000	3.8867e-05	0	127	0.00919927
2	1	0	0	0	1	4	248.493	2.54262e-05	4.67411e-05	0.0189395	1.08251e-07	-0.00194251	3.00416e-08	256	2.81046e-15	0.000000000000000E+000	28340.2	0.000000000000000E+000	0.000000000000000E+000	3.00416e-08	3.00416e-08	0	128	8.8525e-10
2	1	0	0	0	0	4	248.597	2.54262e-05	6.96372e-05	0.0105373	2.62374e-08	-0.0028171	7.24362e-09	258	7.69493e-16	0.000000000000000E+000	1138.92	0.000000000000000E+000	0.000000000000000E+000	7.24362e-09	7.24362e-09	0	129	7.33788e-10
2	0	0	1	0	1	3	248.69	-0.999851	-0.999817	-8.47641	-0.000728693	-0.00354568	-0.000202415	259	2.33178e-15	2.02392e-07	4476.88	3.18371e+07	0.000202415	0.000000000000000E+000	0.000202415	0	129	0.00847486
2	0	0	1	0	0	3	248.77	-0.999851	-0.999878	-8.25452	-0.000460337	-0.00413074	-0.000127871	261	2.44142e-15	1.27855e-07	1125.8	4.02248e+07	0.000127871	0.000000000000000E+000	0.000127871	0	130	0.00825351
2	0	0	1	0	1	3	248.85	-0.999851	-0.999824	-7.98985	-0.000202371	-0.00469941	-5.62141e-05	263	2.65997e-15	5.62069e-08	0.000000000000000E+000	5.30503e+07	5.62141e-05	0.000000000000000E+000	5.62141e-05	0	131	0.00798844
2	1	0	0	0	1	4	248.935	2.54262e-05	5.43732e-05	0.00862771	1.276e-07	-0.0052927	3.5442e-08	264	2.15909e-15	0.000000000000000E+000	1966.79	0.000000000000000E+000	0.000000000000000E+000	3.5442e-08	3.5442e-08	0	132	4.69116e-10
2	1	0	0	0	0	4	249.039	2.54262e-05	8.49015e-05	0.012065	5.62488e-08	-0.00606868	1.56514e-08	266	4.122e-16	0.000000000000000E+000	703.109	0.000000000000000E+000	0.000000000000000E+000	1.56514e-08	1.56514e-08	0	133	1.02433e-09
2	0	0	1	0	1	3	249.14	-0.999851	-0.999714	-7.64459	-0.000736992	-0.0068056	-0.00020472	267	2.16451e-15	2.04693e-07	1356.94	5.08207e+06	0.00020472	0.000000000000000E+000	0.00020472	0	133	0.00764241
2	0	0	1	0	0	3	249.22	-0.999851	-0.999851	-7.51513	-0.000493734	-0.00733585	-0.000137148	269	1.4736e-15	1.3713e-07	678.777	7.6135e+06	0.000137148	0.000000000000000E+000	0.000137148	0	134	0.00751401
2	0	0	1	0	1	3	249.3	-0.999851	-0.999798	-7.44256	-0.000261955	-0.00785822	-7.27651e-05	271	1.94955e-15	7.27552e-08	2277.84	1.36912e+07	7.27651e-05	0.000000000000000E+000	7.27651e-05	0	135	0.00744106
2	0	0	1	0	0	3	249.38	-0.999851	-0.999935	-7.39406	-3.84639e-05	-0.00837708	-1.06846e-05	273	4.77073e-15	1.06839e-08	3880.48	1.12036e+06	1.06846e-05	0.000000000000000E+000	1.06846e-05	0	136	0.00739358
2	1	0	0	0	0	4	249.481	2.54262e-05	3.91089e-05	0.0143565	7.31224e-08	-0.00907603	2.04374e-08	274	5.33725e-16	0.000000000000000E+000	964.014	0.000000000000000E+000	0.000000000000000E+000	2.04374e-08	2.04374e-08	0	137	5.61466e-10
2	1	0	0	1	1	4	249.585	2.54262e-05	7.34534e-05	0.0143565	2.87129e-09	-0.00980974	1.0348e-09	276	7.60098e-17	0.000000000000000E+000	0.000000000000000E+000	0.000000000000000E+000	0.000000000000000E+000	1.0348e-09	1.0348e-09	0	138	1.05453e-09
2	0	0	1	0	0	3	249.67	-0.999851	-0.999943	-7.27872	-0.00054905	-0.0103587	-0.000152514	277	2.39947e-15	1.52494e-07	1413.48	7.99612e+06	0.000152514	0.000000000000000E+000	0.000152514	0	138	0.0072783
2	0	0	1	0	1	3	249.75	-0.999851	-0.999905	-7.27375	-0.000328785	-0.0108678	-9.13291e-05	279	3.80082e-15	9.13185e-08	1592.17	1.43648e+07	9.13291e-05	0.000000000000000E+000	9.13291e-05	0	139	0.00727306
2	0	0	1	0	0	3	249.83	-0.999851	-0.999798	-7.24091	-0.000110091	-0.0113758	-3.0581e-05	281	3.14333e-15	3.05763e-08	956.43	1.60194e+06	3.0581e-05	0.000000000000000E+000	3.0581e-05	0	140	0.00723945
2	1	0	0	0	0	4	249.923	2.54262e-05	0.000119246	0.0139746	1.14439e-07	-0.0119891	3.18202e-08	282	2.85262e-15	0.000000000000000E+000	555.902	0.000000000000000E+000	0.000000000000000E+000	3.18202e-08	3.18202e-08	0	141	1.66641e-09
2	1	0	0	0	1	4	250.027	2.54262e-05	9.25336e-05	0.00977346	2.64665e-08	-0.012711	7.24362e-09	284	1.2942e-15	0.000000000000000E+000	854.192	0.000000000000000E+000	0.000000000000000E+000	7.24362e-09	7.24362e-09	0	142	9.04373e-10
2	0	0	1	0	0	3	250.12	-0.999851	-0.999885	-7.21799	-0.000614959	-0.0133258	-0.000170822	285	2.74745e-15	1.70803e-07	1244.68	5.3736e+06	0.000170822	0.000000000000000E+000	0.000170822	0	142	0.00721717
2	0	0	1	0	1	3	250.2	-0.999851	-0.99992	-7.2157	-0.000398009	-0.0138307	-0.000110558	287	3.15986e-15	1.10542e-07	4515.04	6.52098e+06	0.000110558	0.000000000000000E+000	0.000110558	0	143	0.00721512
2	0	0	1	0	0	3	250.28	-0.999851	-0.999821	-7.21074	-0.000181623	-0.0143352	-5.04508e-05	289	3.02462e-15	5.04429e-08	794.597	5.29015e+06	5.04508e-05	0.000000000000000E+000	5.04508e-05	0	144	0.00720944
2	1	0	0	0	0	4	250.365	2.54262e-05	-6.68341e-06	0.0177937	1.1874e-07	-0.0148936	3.2855e-08	290	1.88614e-15	0.000000000000000E+000	1291.46	0.000000000000000E+000	0.000000000000000E+000	3.2855e-08	3.2855e-08	0	145	1.18923e-10
2	1	0	0	0	1	4	250.469	2.54262e-05	0.000107798	0.012065	4.60135e-08	-0.0156451	1.2935e-08	292	7.92168e-16	0.000000000000000E+000	118.473	0.000000000000000E+000	0.000000000000000E+000	1.2935e-08	1.2935e-08	0	146	1.30058e-09
2	0	0	1	0	0	3	250.57	-0.999851	-0.99976	-7.43034	-0.000710271	-0.0163553	-0.000197298	293	1.0117e-15	1.97271e-07	509.965	6.42046e+06	0.000197298	0.000000000000000E+000	0.000197298	0	146	0.00742855
2	0	0	1	0	1	3	250.65	-0.999851	-0.99992	-7.3826	-0.000482891	-0.0168737	-0.000134136	295	3.40894e-16	1.34119e-07	1021.98	7.91168e+06	0.000134136	0.000000000000000E+000	0.000134136	0	147	0.00738201
2	0	0	1	0	0	3	250.73	-0.999851	-0.999977	-7.3784	-0.000259752	-0.0173908	-7.21532e-05	297	4.13721e-15	7.21451e-08	1067.74	1.74526e+06	7.21532e-05	0.000000000000000E+000	7.21532e-05	0	148	0.00737823
2	0	0	1	0	1	3	250.81	-0.999851	-0.99992	-7.34937	-3.81822e-05	-0.0179065	-1.06062e-05	299	3.65349e-15	1.06053e-08	1895.01	196200	1.06062e-05	0.000000000000000E+000	1.06062e-05	0	149	0.00734878
2	1	0	0	0	1	4	250.911	2.54262e-05	5.05572e-05	0.0174118	7.68651e-08	-0.0186024	2.12135e-08	300	1.41407e-15	0.000000000000000E+000	690.085	0.000000000000000E+000	0.000000000000000E+000	2.12135e-08	2.12135e-08	0	150	8.80291e-10
2	1	0	0	1	0	4	251.015	2.54262e-05	0.000157406	0.00633621	1.26724e-09	-0.0193335	5.17401e-10	302	8.14422e-17	0.000000000000000E+000	0.000000000000000E+000	0.000000000000000E+000	0.000000000000000E+000	5.17401e-10	5.17401e-10	0	151	9.97359e-10
2	0	0	1	0	1	3	251.1	-0.999851	-0.999821	-7.29361	-0.000548421	-0.0198818	-0.000152339	303	2.35135e-15	1.52324e-07	626.253	1.43765e+08	0.000152339	0.000000000000000E+000	0.000152339	0	151	0.00729231
2	0	0	1	0	0	3	251.18	-0.999851	-0.999954	-7.27223	-0.000329005	-0.0203913	-9.13902e-05	305	2.63122e-15	9.13764e-08	1925.32	9.59962e+06	9.13902e-05	0.000000000000000E+000	9.13902e-05	0	152	0.00727189
2	0	0	1	0	1	3	251.26	-0.999851	-0.999817	-7.2581	-0.000110447	-0.0209004	-3.06798e-05	307	1.0285e-15	3.06758e-08	1077.21	1.52385e+06	3.06798e-05	0.000000000000000E+000	3.06798e-05	0	153	0.00725677
2	1	0	0	0	1	4	251.353	2.54262e-05	0.000161222	0.016648	9.77105e-08	-0.0215161	2.69049e-08	308	1.60506e-15	0.000000000000000E+000	402.884	0.000000000000000E+000	0.000000000000000E+000	2.69049e-08	2.69049e-08	0	154	2.68402e-09
2	1	0	0	0	0	7	252.465	2.54262e-05	0.000100166	0.00671813	1.26432e-06	-0.0201414	0.000381902	308	7.6294e-08	0.000000000000000E+000	7.66556e+06	0.000000000000000E+000	0.000000000000000E+000	0.000381902	0.000381902	0	154	6.72926e-10
2	0	0	1	1	0	3	271.866	-0.999851	-0.999931	-10.4013	-2.08025e-06	0.00211909	-5.77873e-07	311	1.16291e-07	5.77833e-10	2.41677e+07	0.000000000000000E+000	5.77873e-07	0.000000000000000E+000	5.77873e-07	0	155	0.0104006
2	1	0	0	0	0	4	271.971	2.54262e-05	0.000103982	0.0193214	7.03761e-08	0.00110037	1.95642e-08	312	2.0416e-15	0.000000000000000E+000	0.000000000000000E+000	0.000000000000000E+000	0.000000000000000E+000	1.95642e-08	1.95642e-08	0	156	2.00907e-09
2	0	0	1	0	1	3	272.076	-0.999851	-0.999782	-10.009	-0.00100431	9.61348e-05	-0.000278974	313	2.92443e-15	2.78935e-07	37614	1.31534e+07	0.000278974	0.000000000000000E+000	0.000278974	0	156	0.0100069
2	0	0	1	0	0	3	272.156	-0.999851	-0.999897	-9.96932	-0.00070075	-0.00060447	-0.000194653	315	5.18521e-16	1.94629e-07	1900.1	1.14811e+07	0.000194653	0.000000000000000E+000	0.000194653	0	157	0.00996829
2	0	0	1	0	1	3	272.236	-0.999851	-0.999958	-9.93648	-0.000399693	-0.00130077	-0.000111026	317	2.04092e-15	1.1101e-07	6030.16	2.99363e+06	0.000111026	0.000000000000000E+000	0.000111026	0	158	0.00993606
2	0	0	1	0	0	3	272.316	-0.999851	-0.999905	-9.92082	-0.0001012	-0.00199571	-2.8111e-05	319	2.80681e-15	2.81091e-08	1301.62	8.84297e+06	2.8111e-05	0.000000000000000E+000	2.8111e-05	0	159	0.00991987
2	1	0	0	0	0	4	272.413	2.54262e-05	-6.68356e-06	0.0139746	1.01992e-07	-0.00288584	2.83277e-08	320	1.41489e-15	0.000000000000000E+000	8908.01	0.000000000000000E+000	0.000000000000000E+000	2.83277e-08	2.83277e-08	0	160	9.33998e-11
2	1	0	0	0	1	4	272.517	2.54262e-05	0.000142142	0.012065	1.47071e-08	-0.00387602	4.07454e-09	322	3.10641e-16	0.000000000000000E+000	60.0603	0.000000000000000E+000	0.000000000000000E+000	4.07454e-09	4.07454e-09	0	161	1.71494e-09
2	0	0	1	0	0	3	272.606	-0.999851	-0.999908	-9.86162	-0.000792062	-0.00466796	-0.000220017	323	2.85728e-15	2.19982e-07	780.975	9.88736e+06	0.000220017	0.000000000000000E+000	0.000220017	0	161	0.00986072
2	0	0	1	0	1	3	272.686	-0.999851	-0.999992	-9.84367	-0.000494472	-0.00535751	-0.000137353	325	4.0903e-15	1.37337e-07	746.52	3.32233e+06	0.000137353	0.000000000000000E+000	0.000137353	0	162	0.00984359
2	0	0	1	0	0	3	272.766	-0.999851	-0.999756	-9.83336	-0.000198557	-0.006046	-5.51546e-05	327	1.77307e-15	5.51493e-08	1010.11	3.46642e+06	5.51546e-05	0.000000000000000E+000	5.51546e-05	0	163	0.00983096
2	1	0	0	0	0	4	272.855	2.54262e-05	3.5293e-05	0.0101554	1.21386e-07	-0.00682947	3.36311e-08	328	8.81735e-17	0.000000000000000E+000	2643.92	0.000000000000000E+000	0.000000000000000E+000	3.36311e-08	3.36311e-08	0	164	3.58414e-10
2	1	0	0	0	1	4	272.959	2.54262e-05	2.00287e-05	0.0197033	4.51005e-08	-0.00780929	1.24176e-08	330	-2.07993e-17	0.000000000000000E+000	2928.64	0.000000000000000E+000	0.000000000000000E+000	1.24176e-08	1.24176e-08	0	165	3.94632e-10
2	0	0	1	0	0	3	273.056	-0.999851	-0.999931	-9.74743	-0.000881348	-0.00869054	-0.000244819	331	1.72111e-15	2.44792e-07	19097.2	9.62039e+06	0.000244819	0.000000000000000E+000	0.000244819	0	165	0.00974676
2	0	0	1	0	1	3	273.136	-0.999851	-0.999874	-9.74972	-0.000587275	-0.0093733	-0.000163132	333	2.08478e-15	1.63111e-07	3091.36	2.19439e+07	0.000163132	0.000000000000000E+000	0.000163132	0	166	0.00974849
2	0	0	1	0	0	3	273.216	-0.999851	-0.999863	-9.72871	-0.000294129	-0.0100554	-8.17023e-05	335	2.93033e-15	8.16941e-08	1525.34	2.02739e+06	8.17023e-05	0.000000000000000E+000	8.17023e-05	0	167	0.00972738
2	0	0	1	1	1	3	273.296	-0.999851	-0.99992	-9.70694	-1.94139e-06	-0.010736	-5.39132e-07	337	1.34611e-15	5.39089e-10	1057.57	0.000000000000000E+000	5.39132e-07	0.000000000000000E+000	5.39132e-07	0	168	0.00970617
2	1	0	0	0	1	4	273.401	2.54262e-05	1.62128e-05	0.0151203	7.5341e-08	-0.0117036	2.09548e-08	338	8.45187e-16	0.000000000000000E+000	1520.65	0.000000000000000E+000	0.000000000000000E+000	2.09548e-08	2.09548e-08	0	169	2.45142e-10
2	0	0	1	0	0	3	273.506	-0.999851	-0.999905	-9.67486	-0.000968824	-0.0126723	-0.000269118	339	2.86937e-15	2.6908e-07	2391.74	6.34681e+06	0.000269118	0.000000000000000E+000	0.000269118	0	169	0.00967394
2	0	0	1	0	1	3	273.586	-0.999851	-0.999832	-9.68441	-0.000679021	-0.0133512	-0.000188617	341	9.34432e-16	1.88592e-07	3685.23	3.56002e+07	0.000188617	0.000000000000000E+000	0.000188617	0	170	0.00968278
2	0	0	1	0	0	3	273.666	-0.999851	-0.999748	-9.66035	-0.000388207	-0.0140273	-0.000107835	343	3.80921e-15	1.0782e-07	758.692	1.13073e+07	0.000107835	0.000000000000000E+000	0.000107835	0	171	0.00965792
2	0	0	1	0	1	3	273.746	-0.999851	-0.999737	-9.60306	-9.79675e-05	-0.0147011	-2.72132e-05	345	2.4703e-15	2.72077e-08	1319.7	693805	2.72132e-05	0.000000000000000E+000	2.72132e-05	0	172	0.00960053
2	1	0	0	0	1	4	273.843	2.54262e-05	4.67411e-05	0.011683	1.09783e-07	-0.0155623	3.05267e-08	346	1.47818e-15	0.000000000000000E+000	2215.27	0.000000000000000E+000	0.000000000000000E+000	3.05267e-08	3.05267e-08	0	173	5.46078e-10
2	1	0	0	0	0	4	273.947	2.54262e-05	5.0557e-05	0.00977346	1.57001e-08	-0.016519	4.65661e-09	348	2.98606e-16	0.000000000000000E+000	274.561	0.000000000000000E+000	0.000000000000000E+000	4.65661e-09	4.65661e-09	0	174	4.94117e-10
2	0	0	1	0	1	3	274.036	-0.999851	-0.999897	-9.52019	-0.000765163	-0.0172841	-0.000212545	349	2.37454e-15	2.12515e-07	2887.98	3.34305e+07	0.000212545	0.000000000000000E+000	0.000212545	0	174	0.0095192
2	0	0	1	0	0	3	274.116	-0.999851	-0.999828	-9.49651	-0.000477231	-0.0179496	-0.000132564	351	2.10059e-15	1.32549e-07	638.98	9.62331e+06	0.000132564	0.000000000000000E+000	0.000132564	0	175	0.00949488
2	0	0	1	0	1	3	274.196	-0.999851	-0.999821	-9.47398	-0.000191356	-0.0186135	-5.31547e-05	353	1.528e-15	5.31498e-08	702.878	1.25408e+07	5.31547e-05	0.000000000000000E+000	5.31547e-05	0	176	0.00947228
2	1	0	0	0	1	4	274.285	2.54262e-05	3.1477e-05	0.0151203	1.26809e-07	-0.0193686	3.51833e-08	354	1.99003e-15	0.000000000000000E+000	5531.92	0.000000000000000E+000	0.000000000000000E+000	3.51833e-08	3.51833e-08	0	177	4.75941e-10
2	1	0	0	0	0	4	274.389	2.54262e-05	4.67412e-05	0.0177937	4.36492e-08	-0.020311	1.19002e-08	356	7.06286e-16	0.000000000000000E+000	1403.31	0.000000000000000E+000	0.000000000000000E+000	1.19002e-08	1.19002e-08	0	178	8.317e-10
2	0	0	1	0	1	3	274.486	-0.999851	-0.999817	-9.35253	-0.000845469	-0.0211564	-0.000234852	357	1.6119e-15	2.34822e-07	3807.25	5.98759e+06	0.000234852	0.000000000000000E+000	0.000234852	0	178	0.00935081
2	0	0	1	0	0	3	274.566	-0.999851	-0.999874	-9.29524	-0.000560597	-0.0218084	-0.000155722	359	3.96739e-15	1.55703e-07	4230.27	1.33408e+07	0.000155722	0.000000000000000E+000	0.000155722	0	179	0.00929407
2	0	0	1	0	1	3	274.646	-0.999851	-0.999924	-9.25552	-0.000279726	-0.0224574	-7.77018e-05	361	9.40115e-16	7.76912e-08	809.818	5.24361e+06	7.77018e-05	0.000000000000000E+000	7.77018e-05	0	180	0.00925481
2	0	0	1	1	0	3	274.726	-0.999851	-0.999828	-9.17417	-1.83483e-06	-0.0231034	-5.0964e-07	363	2.48563e-15	5.09553e-10	4881.11	0.000000000000000E+000	5.0964e-07	0.000000000000000E+000	5.0964e-07	0	181	0.00917259
2	1	0	0	0	0	4	274.831	2.54262e-05	0.000138326	0.000989387	6.77791e-08	-0.0240245	1.91439e-08	364	1.42e-15	0.000000000000000E+000	820.912	0.000000000000000E+000	0.000000000000000E+000	1.91439e-08	1.91439e-08	0	182	1.36858e-10
2	0	0	1	0	1	3	274.936	-0.999851	-0.999737	-9.12032	-0.000917243	-0.0249417	-0.00025479	365	2.14942e-15	2.54756e-07	13504.4	5.11425e+06	0.00025479	0.000000000000000E+000	0.00025479	0	182	0.00911792
2	0	0	1	0	0	3	275.016	-0.999851	-0.99984	-9.00422	-0.000635727	-0.0255773	-0.000176591	367	4.19349e-15	1.76569e-07	1952.44	1.38877e+07	0.000176591	0.000000000000000E+000	0.000176591	0	183	0.00900277
2	0	0	1	0	1	3	275.096	-0.999851	-0.999992	-8.9729	-0.000360759	-0.0262058	-0.000100211	369	3.2951e-15	1.00203e-07	1612.88	4.29867e+06	0.000100211	0.000000000000000E+000	0.000100211	0	184	0.00897283
2	1	0	0	0	0	5	275.168	2.54262e-05	3.1477e-05	0.0124469	4.08266e-08	-0.0267416	5.22575e-08	370	4.6717e-15	0.000000000000000E+000	3081.19	0.000000000000000E+000	0.000000000000000E+000	5.22575e-08	5.22575e-08	0	185	3.9179e-10
2	1	0	0	0	0	7	276.276	2.54262e-05	0.000184119	0.00862771	1.45421e-06	-0.0250221	0.00047769	370	9.54379e-08	0.000000000000000E+000	1.87769e+07	0.000000000000000E+000	0.000000000000000E+000	0.00047769	0.00047769	0	185	1.58852e-09