File: data/test_SRDP_50ms.mpt
EC-Lab ASCII FILE
Nb header lines : 66

Chronoamperometry / Chronocoulometry

Run on channel : 1 (SN 3020)
User :
Electrode connection : standard
Ewe ctrl range : min = -10.00 V, max = 10.00 V
Ewe,I filtering : <None>
Channel : Grounded
Acquisition started on : 04/06/2022 13:48:24
Saved on :
	File : SRDP_2_1_01_srdp5x_cond1p5V_30xpulse-minus1V-read-plus200mV_t-100ms-dt-10-50-100-200-500ms-GISYA-EWE-materials_07_CA_C01.mpr
	Directory : C:\Users\AGH\Desktop\AnJ\2022-04-05-06_ITO_Ni[Me4Benzo]_Cu\
	Host : 192.109.209.128
Device : SP-300 (SN 0552)
Address : USB
EC-Lab for windows v11.20 (software)
Internet server v11.20 (firmware)
Command interpretor v11.20 (firmware)
Electrode material :
Initial state :
Electrolyte :
Comments :
Cable : standard
Electrode surface area : 0.001 cm²
Characteristic mass : 0.001 g
Equivalent Weight : 0.000 g/eq.
Density : 0.000 g/cm3
Ns                  0                   1                   2                   3                   4                   5                   6                   7
Ei (V)              0.000               0.200               0.000               -1.000              0.000               0.000               0.200               0.000
vs.                 Ref                 Ref                 Ref                 Ref                 Ref                 Ref                 Ref                 Ref
ti (h:m:s)          0:00:1.0000         0:00:1.0000         0:00:1.0000         0:00:0.1000         0:00:0.0500         0:00:0.0100         0:00:1.0000         0:00:0.1000
Imax                pass                pass                pass                pass                pass                pass                pass                pass
unit Imax           mA                  mA                  mA                  mA                  mA                  mA                  mA                  mA
Imin                pass                pass                pass                pass                pass                pass                pass                pass
unit Imin           mA                  mA                  mA                  mA                  mA                  mA                  mA                  mA
dQM                 0.000               0.000               0.000               0.000               0.000               0.000               0.000               0.000
unit dQM            mA.h                mA.h                mA.h                mA.h                mA.h                mA.h                mA.h                mA.h
record              I                   I                   I                   I                   I                   I                   I                   I
dI                  0.000               0.000               0.000               0.000               0.000               0.000               0.000               0.000
unit dI             µA                  µA                  µA                  µA                  µA                  µA                  µA                  µA
dQ                  0.000               0.000               0.000               0.000               0.000               0.000               0.000               0.000
unit dQ             mA.h                mA.h                mA.h                mA.h                mA.h                mA.h                mA.h                mA.h
dt (s)              0.5000              0.1000              0.1000              0.0050              0.0050              0.0010              0.1000              0.1000
dta (s)             0.1000              0.1000              0.1000              0.1000              0.1000              0.1000              0.1000              0.1000
E range min (V)     -10.000             -10.000             -10.000             -10.000             -10.000             -10.000             -10.000             -10.000
E range max (V)     10.000              10.000              10.000              10.000              10.000              10.000              10.000              10.000
I Range             100 mA              100 mA              100 mA              100 mA              100 mA              100 mA              100 mA              100 mA
I Range min         Unset               Unset               Unset               Unset               Unset               Unset               Unset               Unset
I Range max         Unset               Unset               Unset               Unset               Unset               Unset               Unset               Unset
I Range init        Unset               Unset               Unset               Unset               Unset               Unset               Unset               Unset
Bandwidth           5                   5                   5                   5                   5                   5                   5                   5
goto Ns'            0                   0                   0                   0                   3                   0                   0                   0
nc cycles           0                   0                   0                   0                   29                  0                   0                   0

Number of loops : 6
Loop 0 from point number 0 to 1008
Loop 1 from point number 1009 to 2017
Loop 2 from point number 2018 to 3026
Loop 3 from point number 3027 to 4035
Loop 4 from point number 4036 to 5044
Loop 5 from point number 5045 to 6053

mode	ox/red	error	control changes	Ns changes	counter inc.	Ns	time/s	control/V	Ewe/V	I/mA	dQ/C	(Q-Qo)/C	Q charge/discharge/mA.h	half cycle	Energy charge/W.h	Energy discharge/W.h	Capacitance charge/µF	Capacitance discharge/µF	Q discharge/mA.h	Q charge/mA.h	Capacity/mA.h	Efficiency/%	cycle number	P/W
2	1	0	0	0	0	0	292.677	2.54262e-05	9.48552e-07	0.0181756	0.0000000E+000	0.0000000E+000	0.000000000000000E+000	0	0.000000000000000E+000	0.000000000000000E+000	0.000000000000000E+000	0.000000000000000E+000	0.000000000000000E+000	0.000000000000000E+000	0.000000000000000E+000	0	0.000000000000000E+000	1.72405e-11
2	0	0	1	0	0	3	295.682	-0.999851	-0.999828	-10.5506	-5.52047e-05	0.00211079	-1.53346e-05	1	1.18862e-07	1.53319e-08	2.58001e+07	724144	1.53346e-05	0.000000000000000E+000	1.53346e-05	0	0.000000000000000E+000	0.0105488
2	1	0	0	0	0	4	295.807	2.54262e-05	9.25336e-05	0.0155022	4.28829e-07	0.0010961	1.19132e-07	2	8.8259e-15	0.000000000000000E+000	12487.4	0.000000000000000E+000	0.000000000000000E+000	1.19132e-07	1.19132e-07	0	1	1.43447e-09
2	1	0	0	1	1	4	295.927	2.54262e-05	2.38449e-05	0.0128288	2.56576e-09	2.10823e-05	7.12438e-10	4	1.6988e-17	0.000000000000000E+000	0.000000000000000E+000	0.000000000000000E+000	0.000000000000000E+000	7.12438e-10	7.12438e-10	0	2	3.05901e-10
2	0	0	1	0	0	3	296.052	-0.999851	-0.999855	-10.6743	-0.000801641	-0.000779861	-0.000222678	5	1.03706e-14	2.22653e-07	183459	5.25364e+07	0.000222678	0.000000000000000E+000	0.000222678	0	2	0.0106728
2	0	0	1	0	1	3	296.172	-0.999851	-0.999836	-10.6193	-0.000480476	-0.00152426	-0.000133466	7	1.58435e-14	1.3345e-07	0.000000000000000E+000	1.57442e+07	0.000133466	0.000000000000000E+000	0.000133466	0	3	0.0106176
2	0	0	1	0	0	3	296.292	-0.999851	-0.999882	-10.5407	-0.00016039	-0.00226461	-4.45527e-05	9	6.86386e-15	4.45462e-08	42465.3	2.21291e+06	4.45527e-05	0.000000000000000E+000	4.45527e-05	0	4	0.0105394
2	1	0	0	0	0	4	296.417	2.54262e-05	3.14768e-05	0.0185575	5.08843e-07	-0.0031521	1.41315e-07	10	1.1159e-14	0.000000000000000E+000	26663.2	0.000000000000000E+000	0.000000000000000E+000	1.41315e-07	1.41315e-07	0	5	5.84133e-10
2	1	0	0	0	1	4	296.537	2.54262e-05	6.58214e-05	0.00939155	1.2566e-07	-0.00416446	3.47952e-08	12	9.62469e-16	0.000000000000000E+000	2188.36	0.000000000000000E+000	0.000000000000000E+000	3.47952e-08	3.47952e-08	0	6	6.18165e-10
2	0	0	1	0	0	3	296.662	-0.999851	-0.999832	-9.92273	-0.000850003	-0.00501393	-0.000236112	13	9.54251e-15	2.36078e-07	21797.1	1.71402e+07	0.000236112	0.000000000000000E+000	0.000236112	0	6	0.00992106
2	0	0	1	0	1	3	296.782	-0.999851	-0.999874	-9.84291	-0.000543963	-0.00570405	-0.000151101	15	9.74863e-15	1.51087e-07	23690.7	8.38033e+06	0.000151101	0.000000000000000E+000	0.000151101	0	7	0.00984167
2	0	0	1	0	0	3	296.902	-0.999851	-0.999893	-9.73406	-0.000245617	-0.00638891	-6.8227e-05	17	1.53012e-14	6.82189e-08	12507.8	1.07312e+07	6.8227e-05	0.000000000000000E+000	6.8227e-05	0	8	0.00973302
2	1	0	0	0	0	4	297.027	2.54262e-05	4.67411e-05	0.011683	6.61758e-07	-0.00711261	1.83807e-07	18	1.05149e-14	0.000000000000000E+000	3538.79	0.000000000000000E+000	0.000000000000000E+000	1.83807e-07	1.83807e-07	0	9	5.46078e-10
2	1	0	0	0	1	4	297.147	2.54262e-05	9.48548e-07	0.0155022	2.70752e-07	-0.0080613	7.50232e-08	20	1.06134e-15	0.000000000000000E+000	8846.99	0.000000000000000E+000	0.000000000000000E+000	7.50232e-08	7.50232e-08	0	10	1.47046e-11
2	0	0	1	0	0	3	297.272	-0.999851	-0.999824	-9.21274	-0.000882924	-0.00894385	-0.000245257	21	3.48956e-15	2.45221e-07	9423.23	2.10114e+07	0.000245257	0.000000000000000E+000	0.000245257	0	10	0.00921113
2	0	0	1	0	1	3	297.392	-0.999851	-0.999885	-9.16997	-0.00059966	-0.00958713	-0.000166572	23	1.40037e-14	1.66553e-07	9360.21	1.57197e+08	0.000166572	0.000000000000000E+000	0.000166572	0	11	0.00916892
2	0	0	1	0	0	3	297.512	-0.999851	-0.99979	-9.10924	-0.000320225	-0.0102248	-8.89511e-05	25	8.16702e-15	8.89359e-08	53936.2	1.39545e+07	8.89511e-05	0.000000000000000E+000	8.89511e-05	0	12	0.00910733
2	0	0	1	0	1	3	297.632	-0.999851	-0.999885	-9.06532	-4.70733e-05	-0.0108589	-1.3076e-05	27	1.45509e-14	1.30745e-08	3577.62	649478	1.3076e-05	0.000000000000000E+000	1.3076e-05	0	13	0.00906429
2	1	0	0	0	1	4	297.757	2.54262e-05	-1.43155e-05	0.0147384	3.8025e-07	-0.0117163	1.0555e-07	28	4.04009e-15	0.000000000000000E+000	14225	0.000000000000000E+000	0.000000000000000E+000	1.0555e-07	1.0555e-07	0	14	2.10987e-10
2	1	0	0	1	0	4	297.877	2.54262e-05	-8.30042e-05	0.0231405	4.62811e-09	-0.0126122	1.2935e-09	30	-1.07366e-16	0.000000000000000E+000	0.000000000000000E+000	0.000000000000000E+000	0.000000000000000E+000	1.2935e-09	1.2935e-09	0	15	1.92076e-09
2	0	0	1	0	1	3	298.002	-0.999851	-0.999905	-8.87322	-0.000668328	-0.0132799	-0.000185647	31	5.26506e-15	1.85627e-07	42526.4	7.61731e+06	0.000185647	0.000000000000000E+000	0.000185647	0	15	0.00887237
2	0	0	1	0	0	3	298.122	-0.999851	-0.999836	-8.8377	-0.000399833	-0.013899	-0.000111065	33	6.91588e-15	1.11048e-07	14846.6	8.07231e+06	0.000111065	0.000000000000000E+000	0.000111065	0	16	0.00883625
2	0	0	1	0	1	3	298.242	-0.999851	-0.999847	-8.81479	-0.000133902	-0.0145163	-3.7195e-05	35	4.70833e-15	3.71898e-08	4888.49	1.95009e+06	3.7195e-05	0.000000000000000E+000	3.7195e-05	0	17	0.00881344
2	1	0	0	0	1	4	298.367	2.54262e-05	6.58213e-05	0.0155022	4.98073e-07	-0.0152621	1.38405e-07	36	4.50168e-15	0.000000000000000E+000	26113.8	0.000000000000000E+000	0.000000000000000E+000	1.38405e-07	1.38405e-07	0	18	1.02037e-09
2	1	0	0	0	0	4	298.487	2.54262e-05	1.23966e-05	0.00786388	1.25278e-07	-0.0161401	3.46659e-08	38	2.31137e-15	0.000000000000000E+000	32702.6	0.000000000000000E+000	0.000000000000000E+000	3.46659e-08	3.46659e-08	0	19	9.74857e-11
2	0	0	1	0	1	3	298.612	-0.999851	-0.999927	-8.73497	-0.000746974	-0.0168866	-0.000207493	39	1.39637e-14	2.07466e-07	163519	1.30679e+07	0.000207493	0.000000000000000E+000	0.000207493	0	19	0.00873433
2	0	0	1	0	0	3	298.732	-0.999851	-0.999866	-8.73	-0.000482083	-0.0174973	-0.000133912	41	1.53759e-14	1.33894e-07	7215.52	1.0545e+07	0.000133912	0.000000000000000E+000	0.000133912	0	20	0.00872883
2	0	0	1	0	1	3	298.852	-0.999851	-0.99984	-8.70709	-0.00021949	-0.0181069	-6.0969e-05	43	6.87795e-15	6.09621e-08	5857.31	1.47473e+06	6.0969e-05	0.000000000000000E+000	6.0969e-05	0	21	0.00870569
2	1	0	0	0	1	4	298.977	2.54262e-05	7.34534e-05	0.0155022	6.43579e-07	-0.0187571	1.78503e-07	44	4.62956e-15	0.000000000000000E+000	8863.05	0.000000000000000E+000	0.000000000000000E+000	1.78503e-07	1.78503e-07	0	22	1.13869e-09
2	1	0	0	0	0	4	299.097	2.54262e-05	0.00015359	0.00671813	2.49365e-07	-0.0196243	6.93318e-08	46	6.88148e-15	0.000000000000000E+000	1072.24	0.000000000000000E+000	0.000000000000000E+000	6.93318e-08	6.93318e-08	0	23	1.03184e-09
2	0	0	1	0	1	3	299.222	-0.999851	-0.99984	-8.62612	-0.000824073	-0.020448	-0.000228909	47	4.89196e-16	2.28878e-07	10402.8	2.39613e+07	0.000228909	0.000000000000000E+000	0.000228909	0	23	0.00862474
2	0	0	1	0	0	3	299.342	-0.999851	-0.999927	-8.61734	-0.000561393	-0.0210502	-0.000155943	49	1.52722e-14	1.55925e-07	3976.31	8.65682e+06	0.000155943	0.000000000000000E+000	0.000155943	0	24	0.00861671
2	0	0	1	0	1	3	299.462	-0.999851	-0.999824	-8.5822	-0.000302234	-0.0216514	-8.39541e-05	51	1.1666e-14	8.39419e-08	8323.56	2.20081e+06	8.39541e-05	0.000000000000000E+000	8.39541e-05	0	25	0.00858069
2	0	0	1	0	0	3	299.582	-0.999851	-0.999813	-8.54515	-4.43999e-05	-0.0222507	-1.23333e-05	53	1.83526e-15	1.23311e-08	3131.27	215415	1.23333e-05	0.000000000000000E+000	1.23333e-05	0	26	0.00854356
2	1	0	0	0	0	4	299.707	2.54262e-05	0.000119246	0.00824579	3.97971e-07	-0.023064	1.10724e-07	54	7.93955e-15	0.000000000000000E+000	2089.11	0.000000000000000E+000	0.000000000000000E+000	1.10724e-07	1.10724e-07	0	27	9.83276e-10
2	1	0	0	1	1	4	299.827	2.54262e-05	0.000107798	0.00557239	1.11448e-09	-0.0239178	5.17401e-10	56	5.57747e-17	0.000000000000000E+000	0.000000000000000E+000	0.000000000000000E+000	0.000000000000000E+000	5.17401e-10	5.17401e-10	0	28	6.0069e-10
2	0	0	1	0	0	3	299.952	-0.999851	-0.999878	-8.51346	-0.00064012	-0.0245573	-0.000177811	57	1.16931e-14	1.77785e-07	11291.6	1.67803e+08	0.000177811	0.000000000000000E+000	0.000177811	0	28	0.00851242
2	0	0	1	0	1	3	300.072	-0.999851	-0.999672	-8.50925	-0.000383873	-0.0251516	-0.000106632	59	1.41167e-14	1.06613e-07	80292.2	2.95836e+06	0.000106632	0.000000000000000E+000	0.000106632	0	29	0.00850646
2	1	0	0	0	0	5	300.18	2.54262e-05	-3.72117e-05	0.025814	5.74745e-08	-0.0256158	1.84712e-07	60	7.21799e-15	0.000000000000000E+000	3057.11	0.000000000000000E+000	0.000000000000000E+000	1.84712e-07	1.84712e-07	0	30	9.60581e-10
2	1	0	1	0	0	1	318.888	0.19994	0.199977	2.30318	0.000462144	0.000475493	0.000132081	62	2.56727e-08	0.000000000000000E+000	2378.07	0.000000000000000E+000	0.000000000000000E+000	0.000132081	0.000132081	0	31	0.000460583
2	0	0	1	0	0	3	320.718	-0.999851	-0.999859	-11.3465	-0.000343516	0.00199181	-9.54212e-05	63	1.28292e-07	9.54091e-08	2.66076e+07	6.92698e+06	9.54212e-05	0.000000000000000E+000	9.54212e-05	0	31	0.0113449
2	0	0	1	1	1	3	320.838	-0.999851	-0.999756	-11.3167	-2.26334e-06	0.00119965	-6.28707e-07	65	3.37896e-15	6.28554e-10	85159.5	0.000000000000000E+000	6.28707e-07	0.000000000000000E+000	6.28707e-07	0	32	0.011314
2	1	0	0	0	1	4	320.963	2.54262e-05	-1.43155e-05	0.0242863	3.76754e-07	7.4497e-05	1.04655e-07	66	2.20814e-15	0.000000000000000E+000	24682.6	0.000000000000000E+000	0.000000000000000E+000	1.04655e-07	1.04655e-07	0	33	3.47671e-10
2	0	0	1	0	0	3	321.088	-0.999851	-0.999828	-11.2358	-0.00112466	-0.00104983	-0.000312406	67	8.82215e-15	3.1237e-07	20658.4	0.000000000000000E+000	0.000312406	0.000000000000000E+000	0.000312406	0	33	0.0112338
2	0	0	1	0	1	3	321.208	-0.999851	-0.999771	-11.2182	-0.000787309	-0.00183652	-0.000218697	69	1.03977e-14	2.18677e-07	3789.24	9.37463e+06	0.000218697	0.000000000000000E+000	0.000218697	0	34	0.0112156
2	0	0	1	0	0	3	321.328	-0.999851	-0.999939	-11.1945	-0.000450306	-0.00262017	-0.000125085	71	8.47435e-15	1.25068e-07	40833.6	2.26942e+06	0.000125085	0.000000000000000E+000	0.000125085	0	35	0.0111938
2	0	0	1	0	1	3	321.448	-0.999851	-0.999813	-11.1918	-0.000114114	-0.00340293	-3.16983e-05	73	6.63176e-15	3.16918e-08	11810.5	1.03097e+06	3.16983e-05	0.000000000000000E+000	3.16983e-05	0	36	0.0111897
2	1	0	0	0	1	4	321.573	2.54262e-05	4.29251e-05	0.012065	4.40422e-07	-0.00440608	1.22365e-07	74	7.47426e-15	0.000000000000000E+000	38478.9	0.000000000000000E+000	0.000000000000000E+000	1.22365e-07	1.22365e-07	0	37	5.17889e-10
2	1	0	0	0	0	4	321.693	2.54262e-05	0.000126878	0.011683	7.30495e-08	-0.00552166	2.0308e-08	76	2.43448e-15	0.000000000000000E+000	598.697	0.000000000000000E+000	0.000000000000000E+000	2.0308e-08	2.0308e-08	0	38	1.48232e-09
2	0	0	1	0	1	3	321.818	-0.999851	-0.999988	-11.1139	-0.00089248	-0.00641357	-0.000247911	77	9.5065e-15	2.47882e-07	4554.59	4.58601e+06	0.000247911	0.000000000000000E+000	0.000247911	0	38	0.0111138
2	0	0	1	0	0	3	321.938	-0.999851	-0.999912	-11.1009	-0.000557431	-0.00719042	-0.000154842	79	1.18032e-14	1.54825e-07	5546.34	8.59572e+06	0.000154842	0.000000000000000E+000	0.000154842	0	39	0.0111
2	0	0	1	0	1	3	322.058	-0.999851	-0.999813	-11.0776	-0.000223782	-0.00796602	-6.21618e-05	81	1.04266e-14	6.21525e-08	3918.74	3.67003e+06	6.21618e-05	0.000000000000000E+000	6.21618e-05	0	40	0.0110756
2	1	0	0	0	1	4	322.183	2.54262e-05	0.000157406	0.0147384	6.10568e-07	-0.0088482	1.69449e-07	82	1.03093e-14	0.000000000000000E+000	5709.14	0.000000000000000E+000	0.000000000000000E+000	1.69449e-07	1.69449e-07	0	41	2.31991e-09
2	1	0	0	0	0	4	322.303	2.54262e-05	0.000119246	0.0059543	1.99046e-07	-0.00995186	5.5362e-08	84	5.96592e-15	0.000000000000000E+000	1934.36	0.000000000000000E+000	0.000000000000000E+000	5.5362e-08	5.5362e-08	0	42	7.10025e-10
2	0	0	1	0	1	3	322.428	-0.999851	-0.999897	-10.9913	-0.000993122	-0.0109445	-0.000275867	85	8.00332e-15	2.75839e-07	4319.77	2.00262e+07	0.000275867	0.000000000000000E+000	0.000275867	0	42	0.0109902
2	0	0	1	0	0	3	322.548	-0.999851	-0.999943	-10.9638	-0.000660982	-0.0117126	-0.000183606	87	5.45512e-15	1.83586e-07	166686	5.97491e+06	0.000183606	0.000000000000000E+000	0.000183606	0	43	0.0109632
2	0	0	1	0	1	3	322.668	-0.999851	-0.999809	-10.9711	-0.000331138	-0.0124797	-9.19829e-05	89	1.2944e-14	9.19715e-08	3878.35	2.89353e+07	9.19829e-05	0.000000000000000E+000	9.19829e-05	0	44	0.010969
2	0	0	1	1	0	3	322.788	-0.999851	-0.99979	-10.9719	-2.19437e-06	-0.0132463	-6.09758e-07	91	5.5555e-15	6.0963e-10	11942.4	0.000000000000000E+000	6.09758e-07	0.000000000000000E+000	6.09758e-07	0	45	0.0109695
2	1	0	0	0	0	4	322.913	2.54262e-05	0.000126878	0.0135926	3.33827e-07	-0.0143385	9.26149e-08	92	5.43361e-15	0.000000000000000E+000	2647.62	0.000000000000000E+000	0.000000000000000E+000	9.26149e-08	9.26149e-08	0	46	1.7246e-09
2	0	0	1	0	1	3	323.038	-0.999851	-0.999805	-10.9222	-0.00109289	-0.015431	-0.000303581	93	1.16483e-14	3.03546e-07	25695.6	0.000000000000000E+000	0.000303581	0.000000000000000E+000	0.000303581	0	46	0.0109201
2	0	0	1	0	0	3	323.158	-0.999851	-0.999813	-10.9142	-0.00076602	-0.0161963	-0.000212784	95	1.49607e-14	2.12756e-07	3811.41	9.12115e+06	0.000212784	0.000000000000000E+000	0.000212784	0	47	0.0109121
2	0	0	1	0	1	3	323.278	-0.999851	-0.999786	-10.8909	-0.000438198	-0.0169589	-0.000121722	97	6.31911e-15	1.21704e-07	5076.34	1.43589e+07	0.000121722	0.000000000000000E+000	0.000121722	0	48	0.0108886
2	0	0	1	0	0	3	323.398	-0.999851	-0.999775	-10.8592	-0.000110795	-0.0177195	-3.07761e-05	99	3.90341e-15	3.07709e-08	6380.29	5.80879e+06	3.07761e-05	0.000000000000000E+000	3.07761e-05	0	49	0.0108567
2	1	0	0	0	0	4	323.523	2.54262e-05	1.62128e-05	0.021231	4.37748e-07	-0.0186915	1.21589e-07	100	6.69017e-15	0.000000000000000E+000	6747.39	0.000000000000000E+000	0.000000000000000E+000	1.21589e-07	1.21589e-07	0	50	3.44212e-10
2	1	0	0	0	1	4	323.643	2.54262e-05	-4.4844e-05	0.00633622	6.24323e-08	-0.019769	1.70742e-08	102	-6.867e-16	0.000000000000000E+000	402.69	0.000000000000000E+000	0.000000000000000E+000	1.70742e-08	1.70742e-08	0	51	2.84141e-10
2	0	0	1	0	0	3	323.768	-0.999851	-0.999992	-10.6969	-0.000860599	-0.0206291	-0.000239055	103	8.69884e-15	2.39023e-07	8863.03	4.17537e+06	0.000239055	0.000000000000000E+000	0.000239055	0	51	0.0106968
2	0	0	1	0	1	3	323.888	-0.999851	-0.999882	-9.94488	-0.000530197	-0.0213704	-0.000147277	105	1.06416e-14	1.47256e-07	10890.9	7.71487e+06	0.000147277	0.000000000000000E+000	0.000147277	0	52	0.0099437
2	0	0	1	0	0	3	324.008	-0.999851	-0.999908	-10.1836	-0.000204025	-0.0220671	-5.66741e-05	107	6.37643e-15	5.66684e-08	16791	7.64062e+06	5.66741e-05	0.000000000000000E+000	5.66741e-05	0	53	0.0101826
2	1	0	0	0	0	4	324.133	2.54262e-05	4.29251e-05	0.016266	6.34857e-07	-0.0228829	1.76434e-07	108	7.28517e-15	0.000000000000000E+000	33289.1	0.000000000000000E+000	0.000000000000000E+000	1.76434e-07	1.76434e-07	0	54	6.98221e-10
2	1	0	0	0	1	4	324.253	2.54262e-05	0.00011543	0.00710006	2.06379e-07	-0.0239068	5.74316e-08	110	5.95208e-15	0.000000000000000E+000	1935.01	0.000000000000000E+000	0.000000000000000E+000	5.74316e-08	5.74316e-08	0	55	8.19558e-10
2	0	0	1	0	0	3	324.378	-0.999851	-0.999908	-10.2653	-0.000921949	-0.0248283	-0.000256097	111	1.02127e-14	2.56074e-07	7077.58	2.41684e+08	0.000256097	0.000000000000000E+000	0.000256097	0	55	0.0102644
2	0	0	1	0	1	3	324.498	-0.999851	-0.999897	-10.4788	-0.000607027	-0.0255348	-0.000168619	113	7.15084e-15	1.68605e-07	5567.5	6.36514e+06	0.000168619	0.000000000000000E+000	0.000168619	0	56	0.0104777
2	0	0	1	0	0	3	324.618	-0.999851	-0.999855	-10.572	-0.000318847	-0.0262717	-8.85683e-05	115	1.06338e-14	8.85568e-08	8029.38	7.60931e+06	8.85683e-05	0.000000000000000E+000	8.85683e-05	0	57	0.0105705
2	0	0	1	1	1	3	324.738	-0.999851	-0.99992	-10.6037	-2.12074e-06	-0.0270114	-5.8932e-07	117	6.00076e-15	5.89273e-10	6188.54	0.000000000000000E+000	5.8932e-07	0.000000000000000E+000	5.8932e-07	0	58	0.0106028
2	1	0	0	0	1	4	324.863	2.54262e-05	8.87174e-05	0.0113011	3.44902e-07	-0.0280692	9.57193e-08	118	3.99227e-15	0.000000000000000E+000	4752.65	0.000000000000000E+000	0.000000000000000E+000	9.57193e-08	9.57193e-08	0	59	1.00261e-09
2	0	0	1	0	0	3	324.988	-0.999851	-0.999863	-10.5666	-0.00105952	-0.0291284	-0.000294311	119	8.15289e-15	2.94282e-07	7533.87	3.08608e+07	0.000294311	0.000000000000000E+000	0.000294311	0	59	0.0105652
2	0	0	1	0	1	3	325.108	-0.999851	-0.99995	-10.4769	-0.000739412	-0.0298671	-0.000205392	121	9.08582e-15	2.05373e-07	10646.9	2.14996e+07	0.000205392	0.000000000000000E+000	0.000205392	0	60	0.0104764
2	1	0	0	0	0	5	325.196	2.54262e-05	0.00011543	0.0151203	9.54955e-08	-0.0301779	2.05926e-07	122	1.15641e-14	0.000000000000000E+000	8094.49	0.000000000000000E+000	0.000000000000000E+000	2.05926e-07	2.05926e-07	0	61	1.74533e-09
2	1	0	1	0	0	1	344.399	0.19994	0.199881	1.90217	0.00132047	0.00133384	0.00037051	124	7.33622e-08	0.000000000000000E+000	6675.47	0.000000000000000E+000	0.000000000000000E+000	0.00037051	0.00037051	0	62	0.000380208
2	0	0	1	0	0	3	345.754	-0.999851	-0.999958	-10.0721	-0.000543885	0.00136835	-0.000151079	125	1.04758e-07	1.51062e-07	3.85463e+07	3.47614e+06	0.000151079	0.000000000000000E+000	0.000151079	0	62	0.0100716
2	0	0	1	0	1	3	345.874	-0.999851	-0.999905	-10.0537	-0.00025341	0.000663634	-7.03916e-05	127	9.73135e-15	7.03828e-08	44509.3	3.90764e+06	7.03916e-05	0.000000000000000E+000	7.03916e-05	0	63	0.0100528
2	1	0	0	0	1	4	345.999	2.54262e-05	4.67411e-05	0.0101554	6.59695e-07	-8.59015e-05	1.83249e-07	128	1.83523e-14	0.000000000000000E+000	9604.15	0.000000000000000E+000	0.000000000000000E+000	1.83249e-07	1.83249e-07	0	64	4.74674e-10
2	1	0	0	0	0	4	346.119	2.54262e-05	0.000126878	0.0101554	2.74342e-07	-0.00108322	7.62197e-08	130	6.92676e-15	0.000000000000000E+000	1382.78	0.000000000000000E+000	0.000000000000000E+000	7.62197e-08	7.62197e-08	0	65	1.28849e-09
2	0	0	1	0	1	3	346.244	-0.999851	-0.99995	-9.89141	-0.000945529	-0.00202836	-0.000262647	131	1.00038e-14	2.62626e-07	4981.33	1.03277e+07	0.000262647	0.000000000000000E+000	0.000262647	0	65	0.00989092
2	0	0	1	0	0	3	346.364	-0.999851	-0.999908	-9.89943	-0.000645052	-0.00272035	-0.000179181	133	3.41038e-15	1.79166e-07	172366	3.93105e+06	0.000179181	0.000000000000000E+000	0.000179181	0	66	0.00989852
2	0	0	1	0	1	3	346.484	-0.999851	-0.999851	-9.84787	-0.000346904	-0.00341056	-9.63623e-05	135	2.46378e-15	9.63506e-08	6840.85	1.81878e+07	9.63623e-05	0.000000000000000E+000	9.63623e-05	0	67	0.0098464
2	0	0	1	0	0	3	346.604	-0.999851	-0.999832	-9.80357	-5.09508e-05	-0.00409867	-1.4153e-05	137	6.68159e-15	1.41507e-08	3788.27	636021	1.4153e-05	0.000000000000000E+000	1.4153e-05	0	68	0.00980192
2	1	0	0	0	0	4	346.729	2.54262e-05	-2.86743e-06	0.011683	3.80173e-07	-0.00502681	1.05679e-07	138	4.81863e-15	0.000000000000000E+000	2623.59	0.000000000000000E+000	0.000000000000000E+000	1.05679e-07	1.05679e-07	0	69	3.35003e-11
2	1	0	0	1	1	4	346.849	2.54262e-05	-1.04995e-05	0.0193214	3.86427e-09	-0.00600126	1.0348e-09	140	-1.0865e-17	0.000000000000000E+000	0.000000000000000E+000	0.000000000000000E+000	0.000000000000000E+000	1.0348e-09	1.0348e-09	0	70	2.02866e-10
2	0	0	1	0	0	3	346.974	-0.999851	-0.999836	-9.76881	-0.00073458	-0.00673523	-0.00020405	141	1.02829e-14	2.04028e-07	13463.7	1.13274e+07	0.00020405	0.000000000000000E+000	0.00020405	0	70	0.00976721
2	0	0	1	0	1	3	347.094	-0.999851	-0.999893	-9.75583	-0.000440406	-0.00741721	-0.000122335	143	1.14749e-14	1.22324e-07	11993.5	2.88625e+07	0.000122335	0.000000000000000E+000	0.000122335	0	71	0.00975479
2	0	0	1	0	0	3	347.214	-0.999851	-0.999752	-9.74514	-0.00014764	-0.00809796	-4.1011e-05	145	2.19136e-15	4.10062e-08	4540.7	1.24785e+06	4.1011e-05	0.000000000000000E+000	4.1011e-05	0	72	0.00974272
2	1	0	0	0	0	4	347.339	2.54262e-05	6.20053e-05	0.016648	5.04336e-07	-0.00892259	1.40216e-07	146	7.46306e-15	0.000000000000000E+000	14697.5	0.000000000000000E+000	0.000000000000000E+000	1.40216e-07	1.40216e-07	0	73	1.03226e-09
2	1	0	0	0	1	4	347.459	2.54262e-05	-0.000170773	0.0177937	1.42464e-07	-0.00989266	3.95812e-08	148	-1.59432e-15	0.000000000000000E+000	691.488	0.000000000000000E+000	0.000000000000000E+000	3.95812e-08	3.95812e-08	0	74	3.03869e-09
2	0	0	1	0	0	3	347.584	-0.999851	-0.999927	-9.69205	-0.00082521	-0.0107173	-0.000229225	149	1.06779e-14	2.29199e-07	8704.61	8.32014e+06	0.000229225	0.000000000000000E+000	0.000229225	0	74	0.00969135
2	0	0	1	0	1	3	347.704	-0.999851	-0.999931	-9.67906	-0.000533206	-0.0113933	-0.000148113	151	7.20814e-15	1.48103e-07	85662.9	2.91107e+06	0.000148113	0.000000000000000E+000	0.000148113	0	75	0.0096784
2	0	0	1	0	0	3	347.824	-0.999851	-0.999851	-9.64355	-0.000242799	-0.0120688	-6.74441e-05	153	1.55038e-14	6.74344e-08	30873	9.0926e+06	6.74441e-05	0.000000000000000E+000	6.74441e-05	0	76	0.00964211
2	1	0	0	0	0	4	347.949	2.54262e-05	0.000103982	0.0132107	6.54425e-07	-0.0127906	1.81608e-07	154	8.71067e-15	0.000000000000000E+000	3115.02	0.000000000000000E+000	0.000000000000000E+000	1.81608e-07	1.81608e-07	0	77	1.37367e-09
2	1	0	0	0	1	4	348.069	2.54262e-05	2.76609e-05	0.0216129	2.62961e-07	-0.0137533	7.32123e-08	156	3.61946e-15	0.000000000000000E+000	13813.5	0.000000000000000E+000	0.000000000000000E+000	7.32123e-08	7.32123e-08	0	78	5.9783e-10
2	0	0	1	0	0	3	348.194	-0.999851	-0.999863	-9.63171	-0.000917089	-0.01467	-0.000254747	157	1.62688e-14	2.5472e-07	5806.82	1.09277e+07	0.000254747	0.000000000000000E+000	0.000254747	0	78	0.00963038
2	0	0	1	0	1	3	348.314	-0.999851	-1.00004	-9.67104	-0.000626669	-0.0153422	-0.000174075	159	8.14329e-15	1.74062e-07	6022.92	2.56558e+06	0.000174075	0.000000000000000E+000	0.000174075	0	79	0.00967145
2	0	0	1	0	0	3	348.434	-0.999851	-0.999855	-9.6382	-0.000339249	-0.0160174	-9.42359e-05	161	1.51873e-14	9.42218e-08	15175.8	8.08474e+06	9.42359e-05	0.000000000000000E+000	9.42359e-05	0	80	0.0096368
2	0	0	1	0	1	3	348.554	-0.999851	-0.999954	-9.61376	-4.99702e-05	-0.0166916	-1.38808e-05	163	1.55388e-15	1.38801e-08	15530.7	354043	1.38808e-05	0.000000000000000E+000	1.38808e-05	0	81	0.00961331
2	1	0	0	0	1	4	348.679	2.54262e-05	8.49015e-05	0.00710006	4.06525e-07	-0.0176049	1.12794e-07	164	1.85239e-15	0.000000000000000E+000	8185.22	0.000000000000000E+000	0.000000000000000E+000	1.12794e-07	1.12794e-07	0	82	6.02805e-10
2	1	0	0	1	0	4	348.799	2.54262e-05	-2.19476e-05	0.0158841	3.17682e-09	-0.0185677	1.0348e-09	166	-2.27115e-17	0.000000000000000E+000	0.000000000000000E+000	0.000000000000000E+000	0.000000000000000E+000	1.0348e-09	1.0348e-09	0	83	3.48619e-10
2	0	0	1	0	1	3	348.924	-0.999851	-0.999771	-9.6615	-0.000724067	-0.0192912	-0.00020113	167	4.85069e-15	2.01104e-07	12953.7	1.72555e+07	0.00020113	0.000000000000000E+000	0.00020113	0	83	0.00965928
2	0	0	1	0	0	3	349.044	-0.999851	-0.999985	-9.65157	-0.000435891	-0.0199661	-0.000121081	169	8.19391e-15	1.2107e-07	12690.9	4.39487e+06	0.000121081	0.000000000000000E+000	0.000121081	0	84	0.00965142
2	0	0	1	0	1	3	349.164	-0.999851	-0.99992	-9.60994	-0.000146109	-0.0206399	-4.05855e-05	171	1.52781e-14	4.05845e-08	5024.65	1.27671e+06	4.05855e-05	0.000000000000000E+000	4.05855e-05	0	85	0.00960917
2	1	0	0	0	1	4	349.289	2.54262e-05	9.63495e-05	0.00862771	4.86921e-07	-0.0214549	1.35042e-07	172	8.33381e-15	0.000000000000000E+000	4109.57	0.000000000000000E+000	0.000000000000000E+000	1.35042e-07	1.35042e-07	0	86	8.31276e-10
2	1	0	0	0	0	4	349.409	2.54262e-05	-4.10278e-05	0.00939155	1.21535e-07	-0.0224029	3.36311e-08	174	-8.74358e-16	0.000000000000000E+000	1866.3	0.000000000000000E+000	0.000000000000000E+000	3.36311e-08	3.36311e-08	0	87	3.85315e-10
2	0	0	1	0	1	3	349.534	-0.999851	-0.999859	-9.70007	-0.000819461	-0.0232218	-0.000227628	175	1.06572e-15	2.27608e-07	2684.6	1.02294e+07	0.000227628	0.000000000000000E+000	0.000227628	0	87	0.0096987
2	0	0	1	0	0	3	349.654	-0.999851	-0.999981	-9.73979	-0.000535917	-0.0239004	-0.000148866	177	1.25638e-14	1.48847e-07	5463.67	5.0174e+06	0.000148866	0.000000000000000E+000	0.000148866	0	88	0.0097396
2	0	0	1	0	1	3	349.774	-0.999851	-0.999851	-9.72031	-0.000245055	-0.0245814	-6.80709e-05	179	8.5508e-15	6.80628e-08	4277.38	8.02997e+06	6.80709e-05	0.000000000000000E+000	6.80709e-05	0	89	0.00971886
2	1	0	0	0	1	4	349.899	2.54262e-05	-1.81316e-05	0.016266	6.69854e-07	-0.0253074	1.86265e-07	180	8.80492e-15	0.000000000000000E+000	9248.4	0.000000000000000E+000	0.000000000000000E+000	1.86265e-07	1.86265e-07	0	90	2.9493e-10
2	1	0	0	0	0	4	350.019	2.54262e-05	7.34534e-05	0.0155022	2.48754e-07	-0.0261486	6.93318e-08	182	5.35525e-15	0.000000000000000E+000	1362.64	0.000000000000000E+000	0.000000000000000E+000	6.93318e-08	6.93318e-08	0	91	1.13869e-09
2	0	0	1	0	1	3	350.144	-0.999851	-0.999821	-6.73945	-0.000641325	-0.0267895	-0.000178145	183	1.19547e-14	1.78123e-07	6164.64	5.60397e+07	0.000178145	0.000000000000000E+000	0.000178145	0	91	0.00673824
2	1	0	1	0	0	6	350.409	0.19994	0.200057	1.21281	0.000243909	-0.0265772	6.79607e-05	184	1.35543e-08	0.000000000000000E+000	1222.67	0.000000000000000E+000	0.000000000000000E+000	6.79607e-05	6.79607e-05	0	92	0.000242631
2	1	0	0	0	0	2	369.81	2.54262e-05	5.43732e-05	0.0174118	1.30996e-06	0.00209761	0.000582669	186	1.15739e-07	0.000000000000000E+000	1.09936e+08	0.000000000000000E+000	0.000000000000000E+000	0.000582669	0.000582669	0	93	9.46734e-10
2	0	0	1	0	0	3	370.79	-0.999851	-0.999912	-10.1675	-0.000826401	0.00128303	-0.000229556	187	1.15739e-07	2.29539e-07	1.97421e+07	1.96942e+07	0.000229556	0.000000000000000E+000	0.000229556	0	93	0.0101666
2	0	0	1	0	1	3	370.91	-0.999851	-0.999924	-10.0331	-0.000504776	0.000578569	-0.000140215	189	9.86274e-15	1.402e-07	7971	8.27833e+06	0.000140215	0.000000000000000E+000	0.000140215	0	94	0.0100323
2	0	0	1	0	0	3	371.03	-0.999851	-0.999939	-9.98994	-0.000201797	-0.000121676	-5.60547e-05	191	8.47164e-15	5.60497e-08	4429	5.28999e+07	5.60547e-05	0.000000000000000E+000	5.60547e-05	0	95	0.00998933
2	1	0	0	0	0	4	371.155	2.54262e-05	0.00011543	0.0181756	5.69015e-07	-0.000916204	1.5805e-07	192	8.7221e-15	-1.66271e-17	29862.9	0.000000000000000E+000	0.000000000000000E+000	1.5805e-07	1.5805e-07	0	96	2.09801e-09
2	1	0	0	0	1	4	371.275	2.54262e-05	-6.68356e-06	0.0113011	2.0256e-07	-0.00190731	5.62674e-08	194	-5.89201e-17	0.000000000000000E+000	4083.23	0.000000000000000E+000	0.000000000000000E+000	5.62674e-08	5.62674e-08	0	97	7.55318e-11
2	0	0	1	0	0	3	371.4	-0.999851	-0.99992	-9.82037	-0.000887776	-0.00279463	-0.000246604	195	-6.17134e-16	2.46579e-07	10135.5	1.54989e+07	0.000246604	0.000000000000000E+000	0.000246604	0	97	0.00981958
2	0	0	1	0	1	3	371.52	-0.999851	-0.999817	-9.77111	-0.000589457	-0.00347967	-0.000163738	197	3.55955e-15	1.63719e-07	11793.1	1.18864e+07	0.000163738	0.000000000000000E+000	0.000163738	0	98	0.00976932
2	0	0	1	0	0	3	371.64	-0.999851	-0.999908	-9.66226	-0.000291872	-0.00415765	-8.10754e-05	199	1.75548e-15	8.10675e-08	4621.79	3.47537e+06	8.10754e-05	0.000000000000000E+000	8.10754e-05	0	99	0.00966137
2	0	0	1	1	1	3	371.76	-0.999851	-0.999931	-9.58397	-1.91679e-06	-0.00483129	-5.32406e-07	201	4.32435e-15	5.32369e-10	8028.11	0.000000000000000E+000	5.32406e-07	0.000000000000000E+000	5.32406e-07	0	100	0.00958331
2	1	0	0	0	1	4	371.885	2.54262e-05	-2.95797e-05	0.0151203	2.93649e-07	-0.00578409	8.14907e-08	202	2.04136e-15	0.000000000000000E+000	4046.17	0.000000000000000E+000	0.000000000000000E+000	8.14907e-08	8.14907e-08	0	101	4.47255e-10
2	0	0	1	0	0	3	372.009	-0.999851	-0.999847	-9.22611	-0.00093581	-0.00671958	-0.000259947	203	9.66241e-15	2.59927e-07	13382.4	2.23015e+07	0.000259947	0.000000000000000E+000	0.000259947	0	101	0.0092247
2	0	0	1	0	1	3	372.13	-0.999851	-0.999916	-9.63629	-0.000678565	-0.00739751	-0.00018849	205	1.6989e-15	1.88473e-07	13860.3	2.96469e+07	0.00018849	0.000000000000000E+000	0.00018849	0	102	0.00963548
2	0	0	1	0	0	3	372.25	-0.999851	-0.99995	-9.36895	-0.000378764	-0.00806111	-0.000105212	207	5.23743e-15	1.05202e-07	24161.4	2.48227e+06	0.000105212	0.000000000000000E+000	0.000105212	0	103	0.00936848
2	0	0	1	0	1	3	372.37	-0.999851	-0.999908	-9.25475	-9.43729e-05	-0.00871206	-2.62147e-05	209	5.67212e-15	2.62119e-08	15570.6	575123	2.62147e-05	0.000000000000000E+000	2.62147e-05	0	104	0.00925391
2	1	0	0	0	1	4	372.495	2.54262e-05	9.25336e-05	0.00595431	4.32707e-07	-0.00954049	1.20037e-07	210	6.03616e-15	0.000000000000000E+000	18873.5	0.000000000000000E+000	0.000000000000000E+000	1.20037e-07	1.20037e-07	0	105	5.50974e-10
2	1	0	0	0	0	4	372.615	2.54262e-05	3.1477e-05	0.0135926	7.28968e-08	-0.0105253	2.04374e-08	212	6.52191e-16	0.000000000000000E+000	6426.79	0.000000000000000E+000	0.000000000000000E+000	2.04374e-08	2.04374e-08	0	106	4.27855e-10
2	0	0	1	0	1	3	372.74	-0.999851	-0.999855	-9.78218	-0.000787254	-0.011312	-0.000218682	213	5.85718e-15	2.1866e-07	54993.8	1.71531e+07	0.000218682	0.000000000000000E+000	0.000218682	0	106	0.00978076
2	0	0	1	0	0	3	372.86	-0.999851	-0.99987	-9.65997	-0.000486303	-0.0119909	-0.000135084	215	1.3573e-14	1.35073e-07	0.000000000000000E+000	1.27481e+08	0.000135084	0.000000000000000E+000	0.000135084	0	107	0.00965871
2	0	0	1	0	1	3	372.98	-0.999851	-0.999843	-9.53661	-0.000192833	-0.012662	-5.35648e-05	217	4.13144e-16	5.35565e-08	19253.2	2.5275e+07	5.35648e-05	0.000000000000000E+000	5.35648e-05	0	108	0.00953512
2	1	0	0	0	1	4	373.105	2.54262e-05	0.00015359	0.00328089	6.13317e-07	-0.0134178	1.70225e-07	218	1.36448e-14	0.000000000000000E+000	6691.17	0.000000000000000E+000	0.000000000000000E+000	1.70225e-07	1.70225e-07	0	109	5.03913e-10
2	1	0	0	0	0	4	373.225	2.54262e-05	9.4855e-07	0.0151203	1.87589e-07	-0.0143548	5.19988e-08	220	2.0277e-15	0.000000000000000E+000	1635.17	0.000000000000000E+000	0.000000000000000E+000	5.19988e-08	5.19988e-08	0	110	1.43424e-11
2	0	0	1	0	1	3	373.35	-0.999851	-0.999939	-9.36093	-0.000846086	-0.0152004	-0.000235024	221	4.77983e-15	2.35008e-07	7230.12	8.52038e+06	0.000235024	0.000000000000000E+000	0.000235024	0	110	0.00936036
2	0	0	1	0	0	3	373.47	-0.999851	-0.99987	-9.32656	-0.000561836	-0.0158533	-0.000156066	223	2.66924e-15	1.56055e-07	80903.8	9.8188e+06	0.000156066	0.000000000000000E+000	0.000156066	0	111	0.00932534
2	0	0	1	0	1	3	373.59	-0.999851	-0.999935	-9.29447	-0.000280741	-0.0165042	-7.79838e-05	225	3.16696e-15	7.79765e-08	5460.72	8.17719e+06	7.79838e-05	0.000000000000000E+000	7.79838e-05	0	112	0.00929387
2	0	0	1	1	0	3	373.71	-0.999851	-0.999927	-9.23681	-1.84736e-06	-0.0171533	-5.13262e-07	227	-6.21152e-15	5.13225e-10	8444.29	0.000000000000000E+000	5.13262e-07	0.000000000000000E+000	5.13262e-07	0	113	0.00923613
2	1	0	0	0	0	4	373.835	2.54262e-05	-4.10278e-05	0.0151203	3.55519e-07	-0.0180761	9.88237e-08	228	2.38605e-15	0.000000000000000E+000	4906.78	0.000000000000000E+000	0.000000000000000E+000	9.88237e-08	9.88237e-08	0	114	6.20353e-10
2	0	0	1	0	1	3	373.959	-0.999851	-0.999927	-9.1249	-0.000916647	-0.0189924	-0.000254624	229	3.56822e-15	2.54597e-07	3894.49	1.20147e+08	0.000254624	0.000000000000000E+000	0.000254624	0	114	0.00912424
2	0	0	1	0	0	3	374.08	-0.999851	-0.999908	-9.05578	-0.000637409	-0.0196292	-0.000177058	231	-2.39943e-15	1.77045e-07	21781.9	2.73782e+06	0.000177058	0.000000000000000E+000	0.000177058	0	115	0.00905495
2	0	0	1	0	1	3	374.2	-0.999851	-0.99992	-9.00956	-0.000362478	-0.0202606	-0.000100688	233	1.02705e-14	1.00681e-07	1890.72	6.33477e+06	0.000100688	0.000000000000000E+000	0.000100688	0	116	0.00900884
2	0	0	1	0	0	3	374.32	-0.999851	-0.999973	-8.96946	-9.15242e-05	-0.0208901	-2.5423e-05	235	5.35322e-15	2.54206e-08	80783.4	420800	2.5423e-05	0.000000000000000E+000	2.5423e-05	0	117	0.00896922
2	1	0	0	0	0	4	374.445	2.54262e-05	-4.10278e-05	0.0200852	4.65857e-07	-0.021696	1.2935e-07	236	-2.75008e-15	0.000000000000000E+000	4881.09	0.000000000000000E+000	0.000000000000000E+000	1.2935e-07	1.2935e-07	0	118	8.24052e-10
2	1	0	0	0	1	4	374.565	2.54262e-05	-1.04994e-05	0.00900964	7.41953e-08	-0.0226009	2.06961e-08	238	-3.31813e-16	0.000000000000000E+000	673.254	0.000000000000000E+000	0.000000000000000E+000	2.06961e-08	2.06961e-08	0	119	9.45958e-11
2	0	0	1	0	0	3	374.69	-0.999851	-0.999836	-9.16806	-0.000736967	-0.0233373	-0.000204713	239	7.13113e-15	2.04689e-07	1833.01	1.37994e+07	0.000204713	0.000000000000000E+000	0.000204713	0	119	0.00916656
2	0	0	1	0	1	3	374.81	-0.999851	-0.999935	-9.08327	-0.000457597	-0.0239755	-0.000127111	241	-2.78351e-15	1.27098e-07	45760	5.2155e+06	0.000127111	0.000000000000000E+000	0.000127111	0	120	0.00908268
2	0	0	1	0	0	3	374.93	-0.999851	-0.999973	-9.00078	-0.000181852	-0.024608	-5.05144e-05	243	-2.27505e-15	5.05112e-08	7048.3	1.98631e+06	5.05144e-05	0.000000000000000E+000	5.05144e-05	0	121	0.00900054
2	1	0	0	0	0	4	375.055	2.54262e-05	-7.53721e-05	0.0231405	5.5603e-07	-0.0253213	1.54703e-07	244	5.13809e-15	0.000000000000000E+000	5032.58	0.000000000000000E+000	0.000000000000000E+000	1.54703e-07	1.54703e-07	0	122	1.74415e-09
2	1	0	0	0	1	4	375.175	2.54262e-05	6.58213e-05	0.00824579	2.24252e-07	-0.0262316	6.20882e-08	246	3.94062e-15	0.000000000000000E+000	1889.46	0.000000000000000E+000	0.000000000000000E+000	6.20882e-08	6.20882e-08	0	123	5.42748e-10
2	1	0	1	0	0	6	375.92	0.19994	0.199866	1.93501	0.00135677	-0.0248743	0.000377095	246	7.53662e-08	0.000000000000000E+000	6790.48	0.000000000000000E+000	0.000000000000000E+000	0.000377095	0.000377095	0	123	0.000386744
2	1	0	0	0	0	2	395.32	2.54262e-05	0.000165038	0.00748197	6.85481e-06	0.00176386	0.000489961	248	9.69395e-08	0.000000000000000E+000	1.65079e+07	0.000000000000000E+000	0.000000000000000E+000	0.000489961	0.000489961	0	124	1.23481e-09
2	1	0	0	1	0	4	395.82	2.54262e-05	4.67411e-05	0.00900962	1.80192e-09	0.000786954	5.01233e-10	250	2.34281e-17	0.000000000000000E+000	0.000000000000000E+000	0.000000000000000E+000	0.000000000000000E+000	5.01233e-10	5.01233e-10	0	125	4.21119e-10
2	0	0	1	0	1	3	395.945	-0.999851	-0.999943	-9.96359	-0.000737873	4.9639e-05	-0.000204965	251	8.57388e-15	2.04942e-07	2190.8	9.6639e+06	0.000204965	0.000000000000000E+000	0.000204965	0	125	0.00996302
2	0	0	1	0	0	3	396.065	-0.999851	-0.999855	-10.1144	-0.000455848	-0.000655095	-0.000126624	253	8.33303e-15	1.26608e-07	7136.97	2.98744e+07	0.000126624	0.000000000000000E+000	0.000126624	0	126	0.010113
2	0	0	1	0	1	3	396.185	-0.999851	-0.999866	-10.1484	-0.000154132	-0.00136449	-4.28145e-05	255	5.152e-15	4.28108e-08	8208.04	4.49724e+06	4.28145e-05	0.000000000000000E+000	4.28145e-05	0	127	0.0101471
2	1	0	0	0	1	4	396.31	2.54262e-05	4.67412e-05	0.00977346	4.39334e-07	-0.00222302	1.22042e-07	256	5.94896e-15	0.000000000000000E+000	28783.1	0.000000000000000E+000	0.000000000000000E+000	1.22042e-07	1.22042e-07	0	128	4.56823e-10
2	1	0	0	0	0	4	396.43	2.54262e-05	9.25336e-05	0.00977346	8.59403e-08	-0.00323243	2.38651e-08	258	4.32824e-16	0.000000000000000E+000	1407.13	0.000000000000000E+000	0.000000000000000E+000	2.38651e-08	2.38651e-08	0	129	9.04373e-10
2	0	0	1	0	1	3	396.555	-0.999851	-0.999927	-9.98001	-0.000853951	-0.00408592	-0.000237209	259	5.21759e-15	2.37186e-07	70897.6	1.1281e+08	0.000237209	0.000000000000000E+000	0.000237209	0	129	0.00997929
2	0	0	1	0	0	3	396.675	-0.999851	-0.999813	-9.92884	-0.00054963	-0.00478271	-0.000152675	261	7.82836e-15	1.52657e-07	3832.91	0.000000000000000E+000	0.000152675	0.000000000000000E+000	0.000152675	0	130	0.00992698
2	0	0	1	0	1	3	396.795	-0.999851	-0.999943	-9.96283	-0.000249959	-0.00547607	-6.94331e-05	263	4.21204e-15	6.94296e-08	25788.5	3.27115e+06	6.94331e-05	0.000000000000000E+000	6.94331e-05	0	131	0.00996226
2	1	0	0	0	1	4	396.92	2.54262e-05	0.000111614	0.0151203	6.02026e-07	-0.00622377	1.6725e-07	264	1.38113e-14	0.000000000000000E+000	4781.25	0.000000000000000E+000	0.000000000000000E+000	1.6725e-07	1.6725e-07	0	132	1.68763e-09
2	1	0	0	0	0	4	397.04	2.54262e-05	5.43732e-05	0.00900964	2.40428e-07	-0.00722513	6.67448e-08	266	2.86848e-15	0.000000000000000E+000	20988.8	0.000000000000000E+000	0.000000000000000E+000	6.67448e-08	6.67448e-08	0	133	4.89883e-10
2	0	0	1	0	1	3	397.165	-0.999851	-0.999878	-10.1286	-0.000954036	-0.00817881	-0.00026501	267	5.61128e-15	2.64984e-07	156075	3.57278e+07	0.00026501	0.000000000000000E+000	0.00026501	0	133	0.0101273
2	0	0	1	0	0	3	397.285	-0.999851	-0.999813	-7.0278	-0.000637514	-0.00886435	-0.000177087	269	1.14816e-14	1.77076e-07	6296.61	6.18606e+06	0.000177087	0.000000000000000E+000	0.000177087	0	134	0.00702649
2	0	0	1	0	1	3	397.405	-0.999851	-0.999927	-6.89375	-0.000243529	-0.00935024	-6.76469e-05	271	7.28824e-15	6.7639e-08	16433	2.65998e+06	6.76469e-05	0.000000000000000E+000	6.76469e-05	0	135	0.00689325
2	0	0	1	0	0	3	397.525	-0.999851	-0.999863	-6.88229	-3.57713e-05	-0.00983224	-9.93644e-06	273	5.7137e-15	9.93513e-09	2816.8	212967	9.93644e-06	0.000000000000000E+000	9.93644e-06	0	136	0.00688134
2	1	0	0	0	0	4	397.65	2.54262e-05	3.91091e-05	0.0113011	3.44961e-07	-0.0104829	9.5978e-08	274	3.54579e-15	-3.01072e-17	1936.86	0.000000000000000E+000	0.000000000000000E+000	9.5978e-08	9.5978e-08	0	137	4.41976e-10
2	1	0	0	1	1	4	397.77	2.54262e-05	0.000123062	0.00328088	6.56176e-10	-0.0111655	0.000000000000000E+000	276	0.000000000000000E+000	0.000000000000000E+000	0.000000000000000E+000	0.000000000000000E+000	0.000000000000000E+000	0.000000000000000E+000	0.000000000000000E+000	0	138	4.03751e-10
2	0	0	1	0	0	3	397.895	-0.999851	-0.999931	-6.8208	-0.000511291	-0.0116762	-0.000142025	277	1.24802e-14	1.42009e-07	15009.4	3.62095e+06	0.000142025	0.000000000000000E+000	0.000142025	0	138	0.00682033
2	0	0	1	0	1	3	398.015	-0.999851	-0.999924	-6.7765	-0.00030672	-0.0121511	-8.52002e-05	279	3.71286e-15	8.51915e-08	3100.6	8.91841e+06	8.52002e-05	0.000000000000000E+000	8.52002e-05	0	139	0.00677598
2	0	0	1	0	0	3	398.135	-0.999851	-0.999859	-6.77039	-0.000102977	-0.012625	-2.86048e-05	281	8.81622e-15	2.86016e-08	5948.83	2.69949e+06	2.86048e-05	0.000000000000000E+000	2.86048e-05	0	140	0.00676943
2	1	0	0	0	0	4	398.26	2.54262e-05	0.000100166	0.0113011	4.29328e-07	-0.0131977	1.19261e-07	282	7.45108e-15	0.000000000000000E+000	37502.7	0.000000000000000E+000	0.000000000000000E+000	1.19261e-07	1.19261e-07	0	141	1.13199e-09
2	1	0	0	0	1	4	398.38	2.54262e-05	9.25336e-05	0.0109192	1.04501e-07	-0.0138714	2.89745e-08	284	3.47582e-15	0.000000000000000E+000	1093.37	0.000000000000000E+000	0.000000000000000E+000	2.89745e-08	2.89745e-08	0	142	1.01039e-09
2	0	0	1	0	0	3	398.505	-0.999851	-0.999821	-6.72303	-0.000572123	-0.014443	-0.000158923	285	6.87237e-15	1.58903e-07	7031.11	8.82227e+06	0.000158923	0.000000000000000E+000	0.000158923	0	142	0.00672183
2	0	0	1	0	1	3	398.625	-0.999851	-0.999901	-6.70394	-0.000370251	-0.0149121	-0.000102848	287	6.39016e-15	1.02833e-07	1846.47	2.15612e+06	0.000102848	0.000000000000000E+000	0.000102848	0	143	0.00670327
2	0	0	1	0	0	3	398.745	-0.999851	-0.999897	-6.70661	-0.000168694	-0.0153805	-4.68595e-05	289	5.12549e-15	4.68566e-08	8284.32	2.45466e+06	4.68595e-05	0.000000000000000E+000	4.68595e-05	0	144	0.00670592
2	1	0	0	0	0	4	398.87	2.54262e-05	-6.3924e-05	0.0200852	5.77354e-07	-0.0158804	1.60394e-07	290	5.71213e-15	0.000000000000000E+000	2854.98	0.000000000000000E+000	0.000000000000000E+000	1.60394e-07	1.60394e-07	0	145	1.28393e-09
2	1	0	0	0	1	4	398.99	2.54262e-05	4.29251e-05	0.0113011	2.33859e-07	-0.0165475	6.51926e-08	292	-1.98783e-16	0.000000000000000E+000	15375.4	0.000000000000000E+000	0.000000000000000E+000	6.51926e-08	6.51926e-08	0	146	4.85102e-10
2	0	0	1	0	0	3	399.115	-0.999851	-0.999966	-6.63977	-0.00063347	-0.0171806	-0.000175964	293	5.38242e-15	1.75953e-07	10529.2	1.84192e+07	0.000175964	0.000000000000000E+000	0.000175964	0	146	0.00663954
2	0	0	1	0	1	3	399.235	-0.999851	-0.999927	-6.63519	-0.000432589	-0.0176445	-0.000120164	295	2.61527e-15	1.20153e-07	8613.71	2.13901e+06	0.000120164	0.000000000000000E+000	0.000120164	0	147	0.00663471
2	0	0	1	0	0	3	399.355	-0.999851	-0.999947	-6.60426	-0.000233125	-0.0181081	-6.47569e-05	297	2.68719e-16	6.47479e-08	0.000000000000000E+000	6.1017e+06	6.47569e-05	0.000000000000000E+000	6.47569e-05	0	148	0.0066039
2	0	0	1	0	1	3	399.475	-0.999851	-0.999935	-6.61304	-3.43268e-05	-0.0185702	-9.53519e-06	299	3.90506e-15	9.53452e-09	73460.2	243204	9.53519e-06	0.000000000000000E+000	9.53519e-06	0	149	0.00661261
2	1	0	0	0	1	4	399.6	2.54262e-05	8.58066e-06	0.0174118	3.24643e-07	-0.0191959	9.05453e-08	300	4.41289e-16	0.000000000000000E+000	4745.5	0.000000000000000E+000	0.000000000000000E+000	9.05453e-08	9.05453e-08	0	150	1.49405e-10
2	1	0	0	1	0	4	399.72	2.54262e-05	3.1477e-05	0.0109192	2.18384e-09	-0.0198555	5.17401e-10	302	1.62862e-17	0.000000000000000E+000	0.000000000000000E+000	0.000000000000000E+000	0.000000000000000E+000	5.17401e-10	5.17401e-10	0	151	3.43704e-10
2	0	0	1	0	1	3	399.845	-0.999851	-0.999866	-6.59127	-0.000495134	-0.02035	-0.000137537	303	7.83119e-15	1.37522e-07	29969.9	4.80727e+06	0.000137537	0.000000000000000E+000	0.000137537	0	151	0.00659039
2	0	0	1	0	0	3	399.965	-0.999851	-0.999988	-6.56645	-0.000297079	-0.0208098	-8.25219e-05	305	7.59921e-15	8.25166e-08	73461.6	5.19183e+06	8.25219e-05	0.000000000000000E+000	8.25219e-05	0	152	0.00656637
2	0	0	1	0	1	3	400.085	-0.999851	-0.999958	-6.57141	-9.99975e-05	-0.0212697	-2.77772e-05	307	5.19585e-15	2.77756e-08	11264.1	2.38308e+06	2.77772e-05	0.000000000000000E+000	2.77772e-05	0	153	0.00657113
2	1	0	0	0	1	4	400.21	2.54262e-05	3.9109e-05	0.00519046	4.42008e-07	-0.0218261	1.22624e-07	308	3.93091e-15	0.000000000000000E+000	5508.67	0.000000000000000E+000	0.000000000000000E+000	1.22624e-07	1.22624e-07	0	154	2.02994e-10
2	1	0	0	0	0	7	401.33	2.54262e-05	4.29251e-05	0.016266	1.12446e-06	-0.0206516	0.000326368	308	6.51662e-08	0.000000000000000E+000	1.3995e+07	0.000000000000000E+000	0.000000000000000E+000	0.000326368	0.000326368	0	154	6.98221e-10
2	0	0	1	1	0	3	420.731	-0.999851	-0.999771	-6.81851	-1.3637e-06	0.00124923	-3.78803e-07	311	6.82327e-08	3.78716e-10	1.56057e+07	0.000000000000000E+000	3.78803e-07	0.000000000000000E+000	3.78803e-07	0	155	0.00681695
2	1	0	0	0	0	4	420.856	2.54262e-05	0.000107798	0.0113011	2.75928e-07	0.000576571	7.66563e-08	312	5.09522e-15	0.000000000000000E+000	5165.46	0.000000000000000E+000	0.000000000000000E+000	7.66563e-08	7.66563e-08	0	156	1.21824e-09
2	0	0	1	0	1	3	420.981	-0.999851	-0.999939	-6.64474	-0.000667475	-9.06521e-05	-0.00018541	313	5.8893e-15	1.85388e-07	9876.58	4.99704e+06	0.00018541	0.000000000000000E+000	0.00018541	0	156	0.00664433
2	0	0	1	0	0	3	421.101	-0.999851	-1.00011	-6.62946	-0.000466628	-0.000556705	-0.000129619	315	1.6867e-15	1.29605e-07	50239.2	1.43831e+06	0.000129619	0.000000000000000E+000	0.000129619	0	157	0.00663022
2	0	0	1	0	1	3	421.221	-0.999851	-0.999992	-6.63557	-0.000266656	-0.00102064	-7.40711e-05	317	6.21358e-15	7.40647e-08	3229.47	2.9126e+06	7.40711e-05	0.000000000000000E+000	7.40711e-05	0	158	0.00663552
2	0	0	1	0	0	3	421.341	-0.999851	-0.999805	-6.61075	-6.73951e-05	-0.00148405	-1.87209e-05	319	6.78729e-15	1.87178e-08	137898	1.76672e+07	1.87209e-05	0.000000000000000E+000	1.87209e-05	0	159	0.00660946
2	1	0	0	0	0	4	421.466	2.54262e-05	-1.81316e-05	0.011683	3.8344e-07	-0.00207747	1.0652e-07	320	3.8462e-16	0.000000000000000E+000	25122.5	0.000000000000000E+000	0.000000000000000E+000	1.0652e-07	1.0652e-07	0	160	2.11833e-10
2	1	0	0	0	1	4	421.586	2.54262e-05	-1.81317e-05	0.0177937	5.93769e-08	-0.00273814	1.64922e-08	322	-3.23711e-16	0.000000000000000E+000	1555.85	0.000000000000000E+000	0.000000000000000E+000	1.64922e-08	1.64922e-08	0	161	3.22629e-10
2	0	0	1	0	0	3	421.711	-0.999851	-0.999866	-6.59433	-0.000528264	-0.00326588	-0.00014674	323	9.26121e-15	1.46729e-07	4922.42	1.53868e+07	0.00014674	0.000000000000000E+000	0.00014674	0	161	0.00659344
2	0	0	1	0	1	3	421.831	-0.999851	-0.999843	-6.58669	-0.000330721	-0.00372649	-9.18669e-05	325	6.39722e-15	9.18559e-08	5233.09	8.65612e+06	9.18669e-05	0.000000000000000E+000	9.18669e-05	0	162	0.00658566
2	0	0	1	0	0	3	421.951	-0.999851	-0.999832	-6.58058	-0.000132965	-0.00418704	-3.69348e-05	327	7.72857e-15	3.69295e-08	141549	850148	3.69348e-05	0.000000000000000E+000	3.69348e-05	0	163	0.00657947
2	1	0	0	0	0	4	422.076	2.54262e-05	-4.10278e-05	0.0177937	5.00728e-07	-0.00471232	1.39052e-07	328	5.30786e-15	0.000000000000000E+000	4858.49	0.000000000000000E+000	0.000000000000000E+000	1.39052e-07	1.39052e-07	0	164	7.30038e-10
2	1	0	0	0	1	4	422.196	2.54262e-05	6.58213e-05	0.0174118	1.66201e-07	-0.00538354	4.61781e-08	330	3.35491e-15	0.000000000000000E+000	1613.47	0.000000000000000E+000	0.000000000000000E+000	4.61781e-08	4.61781e-08	0	165	1.14607e-09
2	0	0	1	0	0	3	422.321	-0.999851	-0.999756	-6.56721	-0.00059277	-0.00597593	-0.000164658	331	1.26962e-14	1.6464e-07	2117.53	5.7519e+06	0.000164658	0.000000000000000E+000	0.000164658	0	165	0.0065656
2	0	0	1	0	1	3	422.441	-0.999851	-0.99992	-6.58516	-0.000395209	-0.00643499	-0.00010978	333	6.211e-15	1.09767e-07	136429	4.31393e+06	0.00010978	0.000000000000000E+000	0.00010978	0	166	0.00658463
2	0	0	1	0	0	3	422.561	-0.999851	-0.999908	-6.57103	-0.000198876	-0.00689526	-5.52432e-05	335	4.15044e-15	5.52385e-08	11511.2	2.2667e+06	5.52432e-05	0.000000000000000E+000	5.52432e-05	0	167	0.00657043
2	0	0	1	1	1	3	422.681	-0.999851	-0.999832	-6.53742	-1.30748e-06	-0.0073548	-3.63216e-07	337	3.18357e-15	3.63155e-10	4689.92	0.000000000000000E+000	3.63216e-07	0.000000000000000E+000	3.63216e-07	0	168	0.00653632
2	1	0	0	0	1	4	422.806	2.54262e-05	-7.15561e-05	0.0193214	2.88378e-07	-0.00800944	8.01972e-08	338	-2.51677e-16	0.000000000000000E+000	5404.08	0.000000000000000E+000	0.000000000000000E+000	8.01972e-08	8.01972e-08	0	169	1.38256e-09
2	0	0	1	0	0	3	422.931	-0.999851	-0.999924	-6.53627	-0.000654977	-0.00866417	-0.000181938	339	9.16793e-15	1.8192e-07	7475.77	7.46515e+06	0.000181938	0.000000000000000E+000	0.000181938	0	169	0.00653577
2	0	0	1	0	1	3	423.051	-0.999851	-0.999912	-6.53054	-0.000458845	-0.00912249	-0.000127457	341	3.75852e-15	1.27442e-07	6833.54	458.819	0.000127457	0.000000000000000E+000	0.000127457	0	170	0.00652997
2	0	0	1	0	0	3	423.171	-0.999851	-0.999866	-6.54009	-0.000262559	-0.00957931	-7.29332e-05	343	2.86089e-15	7.2927e-08	3953.68	3.44142e+06	7.29332e-05	0.000000000000000E+000	7.29332e-05	0	171	0.00653922
2	0	0	1	0	1	3	423.291	-0.999851	-0.999905	-6.53093	-6.65361e-05	-0.0100359	-1.84821e-05	345	1.09992e-14	1.84801e-08	11001.2	1.58338e+06	1.84821e-05	0.000000000000000E+000	1.84821e-05	0	172	0.0065303
2	1	0	0	0	1	4	423.416	2.54262e-05	5.05572e-05	0.0132107	4.05285e-07	-0.0106219	1.12535e-07	346	3.33099e-15	0.000000000000000E+000	4083.22	0.000000000000000E+000	0.000000000000000E+000	1.12535e-07	1.12535e-07	0	173	6.67897e-10
2	1	0	0	0	0	4	423.536	2.54262e-05	-7.15563e-05	0.0113011	5.21205e-08	-0.0112754	1.44872e-08	348	-9.79395e-16	0.000000000000000E+000	471.278	0.000000000000000E+000	0.000000000000000E+000	1.44872e-08	1.44872e-08	0	174	8.08667e-10
2	0	0	1	0	1	3	423.661	-0.999851	-0.999863	-6.53398	-0.000523649	-0.0117986	-0.000145458	349	5.62357e-15	1.45437e-07	3593.71	6.86357e+07	0.000145458	0.000000000000000E+000	0.000145458	0	174	0.00653308
2	0	0	1	0	0	3	423.781	-0.999851	-0.999737	-6.53704	-0.000327646	-0.012255	-9.10127e-05	351	9.21289e-15	9.09989e-08	7867.17	1.71727e+06	9.10127e-05	0.000000000000000E+000	9.10127e-05	0	175	0.00653532
2	0	0	1	0	1	3	423.901	-0.999851	-0.999779	-6.52252	-0.000131826	-0.0127114	-3.66186e-05	353	1.88444e-15	3.66125e-08	4842.96	5.7596e+06	3.66186e-05	0.000000000000000E+000	3.66186e-05	0	176	0.00652108
2	1	0	0	0	1	4	424.026	2.54262e-05	9.25336e-05	0.00289897	5.11804e-07	-0.0132314	1.42285e-07	354	6.18066e-15	0.000000000000000E+000	12202.8	0.000000000000000E+000	0.000000000000000E+000	1.42285e-07	1.42285e-07	0	177	2.68252e-10
2	1	0	0	0	0	4	424.146	2.54262e-05	6.96372e-05	0.0109192	1.73992e-07	-0.0138822	4.81183e-08	356	2.5117e-15	0.000000000000000E+000	45393.1	0.000000000000000E+000	0.000000000000000E+000	4.81183e-08	4.81183e-08	0	178	7.60384e-10
2	0	0	1	0	1	3	424.271	-0.999851	-0.999958	-6.51565	-0.000587251	-0.0144691	-0.000163125	357	9.90038e-15	1.63107e-07	16758.4	1.18277e+07	0.000163125	0.000000000000000E+000	0.000163125	0	178	0.00651538
2	0	0	1	0	0	3	424.391	-0.999851	-0.999851	-6.50878	-0.000391777	-0.0149241	-0.000108827	359	1.17322e-14	1.08812e-07	10459.5	1.02702e+07	0.000108827	0.000000000000000E+000	0.000108827	0	179	0.00650781
2	0	0	1	0	1	3	424.511	-0.999851	-0.999893	-6.49694	-0.000196189	-0.0153787	-5.44969e-05	361	3.52472e-15	5.449e-08	2607.53	918131	5.44969e-05	0.000000000000000E+000	5.44969e-05	0	180	0.00649624
2	0	0	1	1	0	3	424.631	-0.999851	-0.999863	-6.48128	-1.29626e-06	-0.0158331	-3.60111e-07	363	1.35329e-14	3.60062e-10	11796	0.000000000000000E+000	3.60111e-07	0.000000000000000E+000	3.60111e-07	0	181	0.00648039
2	1	0	0	0	0	4	424.756	2.54262e-05	-3.33958e-05	0.016648	2.81886e-07	-0.016482	7.8645e-08	364	1.41129e-15	0.000000000000000E+000	14838.5	0.000000000000000E+000	0.000000000000000E+000	7.8645e-08	7.8645e-08	0	182	5.55972e-10
2	0	0	1	0	1	3	424.881	-0.999851	-0.999817	-6.72265	-0.000674723	-0.0171565	-0.000187423	365	6.60361e-15	1.87405e-07	4437.36	1.03948e+07	0.000187423	0.000000000000000E+000	0.000187423	0	182	0.00672142
2	0	0	1	0	0	3	425.001	-0.999851	-0.999855	-6.69706	-0.000470444	-0.0176264	-0.000130679	367	1.86695e-15	1.30665e-07	16704.2	3.42567e+06	0.000130679	0.000000000000000E+000	0.000130679	0	183	0.00669609
2	0	0	1	0	1	3	425.121	-0.999851	-0.999996	-6.66689	-0.000267951	-0.0180928	-7.44308e-05	369	6.78621e-15	7.44263e-08	5819.76	1.4335e+06	7.44308e-05	0.000000000000000E+000	7.44308e-05	0	184	0.00666686
2	1	0	0	0	0	5	425.233	2.54262e-05	6.96374e-05	0.00442664	2.47097e-08	-0.0184901	1.76434e-07	370	5.67996e-15	0.000000000000000E+000	6935.22	0.000000000000000E+000	0.000000000000000E+000	1.76434e-07	1.76434e-07	0	185	3.0826e-10
2	1	0	0	0	0	7	426.341	2.54262e-05	0.000107798	0.00862772	1.14539e-06	-0.0172845	0.000335073	370	6.69121e-08	0.000000000000000E+000	9.29714e+06	0.000000000000000E+000	0.000000000000000E+000	0.000335073	0.000335073	0	185	9.30049e-10